guest_id,asof_date,aov_7d,visits_7d,aov_28d,visits_28d,aov_90d,visits_90d,aov_365d,recency_days,redemption_rate_90d,coupon_depth_90d,daypart_ratio_breakfast,daypart_ratio_lunch,daypart_ratio_dinner,solo_group_ratio,delivery_ratio,touches_72h,touches_email_72h,touches_push_72h,touches_inapp_72h,no_convert_72h,assist_email_72h,assist_push_72h,assist_inapp_72h,assist_web_72h,sku_affinity_topk_stub,new_item_trial_flag,rfm_r,rfm_f,rfm_m,mosaic_segment,holiday_flag,season,feature_ts,build_version,snapshot_id,decision_time,response_within_window,treatment_flag,channel_exposed,train_split,code_commit_sha
03bfc8PX,2025-09-05,15.910000,1,15.910000,1,14.240000,2,16.396666,3,0.00000000000000000000,2.865000,0.000000,0.666666,0.333333,NULL,0.000000,0,0,0,0,0,0.00000000000000000000,0.00000000000000000000,0.00000000000000000000,0.00000000000000000000,0,0,5,5,4,NULL,NULL,fall,2025-10-07 20:30:49.843,feature_mart,snap_20250905,2024-11-24 17:00:00,0,1,iOS applications channel,train_split_v1,commit_0001
08eVRjbD,2025-09-05,0.000000,0,0.000000,0,0.000000,0,0.000000,365,0.00000000000000000000,0.000000,0.000000,0.000000,0.000000,NULL,0.000000,0,0,0,0,0,0.00000000000000000000,0.00000000000000000000,0.00000000000000000000,0.00000000000000000000,0,0,1,2,2,NULL,NULL,fall,2025-10-07 20:30:49.843,feature_mart,snap_20250905,2025-07-18 20:00:00,0,1,iOS applications channel,train_split_v1,commit_0001
0eKxhGR5,2025-09-05,0.000000,0,0.000000,0,0.000000,0,0.000000,365,0.00000000000000000000,0.000000,0.000000,0.000000,0.000000,NULL,0.000000,0,0,0,0,0,0.00000000000000000000,0.00000000000000000000,0.00000000000000000000,0.00000000000000000000,0,0,1,2,2,NULL,NULL,fall,2025-10-07 20:30:49.843,feature_mart,snap_20250905,2025-01-15 10:00:00,0,1,Email channel,train_split_v1,commit_0001
0FgB9xO5,2025-09-05,0.000000,0,0.000000,0,0.000000,0,22.770000,251,0.00000000000000000000,0.000000,0.000000,0.000000,0.000000,NULL,0.000000,0,0,0,0,0,0.00000000000000000000,0.00000000000000000000,0.00000000000000000000,0.00000000000000000000,0,0,2,1,1,NULL,NULL,fall,2025-10-07 20:30:49.843,feature_mart,snap_20250905,2025-01-03 12:00:00,0,1,Email channel,train_split_v1,commit_0001
0FgB9xO5,2025-09-05,0.000000,0,0.000000,0,0.000000,0,22.770000,251,0.00000000000000000000,0.000000,0.000000,0.000000,0.000000,NULL,0.000000,0,0,0,0,0,0.00000000000000000000,0.00000000000000000000,0.00000000000000000000,0.00000000000000000000,0,0,2,2,2,NULL,NULL,fall,2025-10-07 20:30:49.843,feature_mart,snap_20250905,2025-01-03 12:00:00,0,1,Email channel,train_split_v1,commit_0001
0Oj1Mqu6,2025-09-05,0.000000,0,0.000000,0,0.000000,0,24.477500,116,0.00000000000000000000,0.000000,0.000000,0.500000,0.500000,NULL,0.000000,0,0,0,0,0,0.00000000000000000000,0.00000000000000000000,0.00000000000000000000,0.00000000000000000000,0,0,4,1,1,NULL,NULL,fall,2025-10-07 20:30:49.843,feature_mart,snap_20250905,2024-09-29 13:00:00,0,1,Android applications channel,train_split_v1,commit_0001
0Oj1Mqu6,2025-09-05,0.000000,0,0.000000,0,0.000000,0,24.477500,116,0.00000000000000000000,0.000000,0.000000,0.500000,0.500000,NULL,0.000000,0,0,0,0,0,0.00000000000000000000,0.00000000000000000000,0.00000000000000000000,0.00000000000000000000,0,0,4,2,2,NULL,NULL,fall,2025-10-07 20:30:49.843,feature_mart,snap_20250905,2024-09-29 13:00:00,0,1,Android applications channel,train_split_v1,commit_0001
0pfDCZKC,2025-09-05,0.000000,0,0.000000,0,0.000000,0,0.000000,365,0.00000000000000000000,0.000000,0.000000,0.000000,0.000000,NULL,0.000000,0,0,0,0,0,0.00000000000000000000,0.00000000000000000000,0.00000000000000000000,0.00000000000000000000,0,0,1,2,2,NULL,NULL,fall,2025-10-07 20:30:49.843,feature_mart,snap_20250905,2024-11-07 17:00:00,0,1,Email channel,train_split_v1,commit_0001
0W3iPRje,2025-09-05,0.000000,0,0.000000,0,26.410000,1,26.386666,32,0.00000000000000000000,0.000000,0.000000,0.000000,0.666666,NULL,0.000000,0,0,0,0,0,0.00000000000000000000,0.00000000000000000000,0.00000000000000000000,0.00000000000000000000,0,0,5,4,5,NULL,NULL,fall,2025-10-07 20:30:49.843,feature_mart,snap_20250905,2025-05-24 11:00:00,0,1,Email channel,train_split_v1,commit_0001
0W3iPRje,2025-09-05,0.000000,0,0.000000,0,26.410000,1,26.386666,32,0.00000000000000000000,0.000000,0.000000,0.000000,0.666666,NULL,0.000000,0,0,0,0,0,0.00000000000000000000,0.00000000000000000000,0.00000000000000000000,0.00000000000000000000,0,0,5,5,5,NULL,NULL,fall,2025-10-07 20:30:49.843,feature_mart,snap_20250905,2025-05-24 11:00:00,0,1,Email channel,train_split_v1,commit_0001
0y9JGPFA,2025-09-05,0.000000,0,0.000000,0,0.000000,0,23.610000,293,0.00000000000000000000,0.000000,0.000000,1.000000,0.000000,NULL,0.000000,0,0,0,0,0,0.00000000000000000000,0.00000000000000000000,0.00000000000000000000,0.00000000000000000000,0,0,2,1,1,NULL,NULL,fall,2025-10-07 20:30:49.843,feature_mart,snap_20250905,2025-02-24 18:00:00,0,1,Android applications channel,train_split_v1,commit_0001
0y9JGPFA,2025-09-05,0.000000,0,0.000000,0,0.000000,0,23.610000,293,0.00000000000000000000,0.000000,0.000000,1.000000,0.000000,NULL,0.000000,0,0,0,0,0,0.00000000000000000000,0.00000000000000000000,0.00000000000000000000,0.00000000000000000000,0,0,2,2,2,NULL,NULL,fall,2025-10-07 20:30:49.843,feature_mart,snap_20250905,2025-02-24 18:00:00,0,1,Android applications channel,train_split_v1,commit_0001
0zxRO8Pf,2025-09-05,0.000000,0,0.000000,0,0.000000,0,0.000000,365,0.00000000000000000000,0.000000,0.000000,0.000000,0.000000,NULL,0.000000,0,0,0,0,0,0.00000000000000000000,0.00000000000000000000,0.00000000000000000000,0.00000000000000000000,0,0,1,2,2,NULL,NULL,fall,2025-10-07 20:30:49.843,feature_mart,snap_20250905,2025-07-30 15:00:00,0,1,Email channel,train_split_v1,commit_0001
12ujfTp9,2025-09-05,0.000000,0,22.190000,1,22.190000,1,22.190000,20,1.00000000000000000000,0.000000,0.000000,0.000000,1.000000,NULL,0.000000,0,0,0,0,0,0.00000000000000000000,0.00000000000000000000,0.00000000000000000000,0.00000000000000000000,0,0,5,4,4,NULL,NULL,fall,2025-10-07 20:30:49.843,feature_mart,snap_20250905,2025-05-27 17:00:00,0,1,iOS applications channel,train_split_v1,commit_0001
12ujfTp9,2025-09-05,0.000000,0,22.190000,1,22.190000,1,22.190000,20,1.00000000000000000000,0.000000,0.000000,0.000000,1.000000,NULL,0.000000,0,0,0,0,0,0.00000000000000000000,0.00000000000000000000,0.00000000000000000000,0.00000000000000000000,0,0,5,5,4,NULL,NULL,fall,2025-10-07 20:30:49.843,feature_mart,snap_20250905,2025-05-27 17:00:00,0,1,iOS applications channel,train_split_v1,commit_0001
155sXZoM,2025-09-05,0.000000,0,0.000000,0,25.380000,1,25.380000,30,0.00000000000000000000,7.000000,0.000000,0.000000,1.000000,NULL,0.000000,2,2,0,0,2,1.00000000000000000000,0.00000000000000000000,0.00000000000000000000,0.00000000000000000000,0,0,5,4,4,NULL,NULL,fall,2025-10-07 20:30:49.843,feature_mart,snap_20250905,2025-09-03 11:00:00,0,1,Email channel,train_split_v1,commit_0001
155sXZoM,2025-09-05,0.000000,0,0.000000,0,25.380000,1,25.380000,30,0.00000000000000000000,7.000000,0.000000,0.000000,1.000000,NULL,0.000000,2,2,0,0,2,1.00000000000000000000,0.00000000000000000000,0.00000000000000000000,0.00000000000000000000,0,0,5,5,4,NULL,NULL,fall,2025-10-07 20:30:49.843,feature_mart,snap_20250905,2025-09-03 11:00:00,0,1,Email channel,train_split_v1,commit_0001
1bdShACy,2025-09-05,0.000000,0,0.000000,0,0.000000,0,0.000000,365,0.00000000000000000000,0.000000,0.000000,0.000000,0.000000,NULL,0.000000,0,0,0,0,0,0.00000000000000000000,0.00000000000000000000,0.00000000000000000000,0.00000000000000000000,0,0,1,2,2,NULL,NULL,fall,2025-10-07 20:30:49.843,feature_mart,snap_20250905,2024-12-22 15:00:00,0,1,Android applications channel,train_split_v1,commit_0001
1eHqy6oH,2025-09-05,0.000000,0,0.000000,0,0.000000,0,20.790000,218,0.00000000000000000000,0.000000,0.000000,0.000000,1.000000,NULL,0.000000,0,0,0,0,0,0.00000000000000000000,0.00000000000000000000,0.00000000000000000000,0.00000000000000000000,0,0,3,1,1,NULL,NULL,fall,2025-10-07 20:30:49.843,feature_mart,snap_20250905,2025-07-11 20:00:00,0,1,Email channel,train_split_v1,commit_0001
1eHqy6oH,2025-09-05,0.000000,0,0.000000,0,0.000000,0,20.790000,218,0.00000000000000000000,0.000000,0.000000,0.000000,1.000000,NULL,0.000000,0,0,0,0,0,0.00000000000000000000,0.00000000000000000000,0.00000000000000000000,0.00000000000000000000,0,0,3,2,2,NULL,NULL,fall,2025-10-07 20:30:49.843,feature_mart,snap_20250905,2025-07-11 20:00:00,0,1,Email channel,train_split_v1,commit_0001
1ffBgVVx,2025-09-05,0.000000,0,0.000000,0,30.220000,1,28.070000,73,0.00000000000000000000,0.000000,0.000000,0.500000,0.500000,NULL,0.000000,0,0,0,0,0,0.00000000000000000000,0.00000000000000000000,0.00000000000000000000,0.00000000000000000000,0,0,4,4,5,NULL,NULL,fall,2025-10-07 20:30:49.843,feature_mart,snap_20250905,2025-04-04 20:00:00,0,1,Android applications channel,train_split_v1,commit_0001
1ffBgVVx,2025-09-05,0.000000,0,0.000000,0,30.220000,1,28.070000,73,0.00000000000000000000,0.000000,0.000000,0.500000,0.500000,NULL,0.000000,0,0,0,0,0,0.00000000000000000000,0.00000000000000000000,0.00000000000000000000,0.00000000000000000000,0,0,4,5,5,NULL,NULL,fall,2025-10-07 20:30:49.843,feature_mart,snap_20250905,2025-04-04 20:00:00,0,1,Android applications channel,train_split_v1,commit_0001
1HmwTAsk,2025-09-05,0.000000,0,0.000000,0,0.000000,0,35.190000,325,0.00000000000000000000,0.000000,0.000000,1.000000,0.000000,NULL,0.000000,0,0,0,0,0,0.00000000000000000000,0.00000000000000000000,0.00000000000000000000,0.00000000000000000000,0,0,2,1,1,NULL,NULL,fall,2025-10-07 20:30:49.843,feature_mart,snap_20250905,2025-03-30 21:00:00,0,1,iOS applications channel,train_split_v1,commit_0001
1HmwTAsk,2025-09-05,0.000000,0,0.000000,0,0.000000,0,35.190000,325,0.00000000000000000000,0.000000,0.000000,1.000000,0.000000,NULL,0.000000,0,0,0,0,0,0.00000000000000000000,0.00000000000000000000,0.00000000000000000000,0.00000000000000000000,0,0,2,2,2,NULL,NULL,fall,2025-10-07 20:30:49.843,feature_mart,snap_20250905,2025-03-30 21:00:00,0,1,iOS applications channel,train_split_v1,commit_0001
1Is42BZa,2025-09-05,0.000000,0,0.000000,0,0.000000,0,33.260000,169,0.00000000000000000000,0.000000,0.000000,1.000000,0.000000,NULL,0.000000,0,0,0,0,0,0.00000000000000000000,0.00000000000000000000,0.00000000000000000000,0.00000000000000000000,0,0,3,1,1,NULL,NULL,fall,2025-10-07 20:30:49.843,feature_mart,snap_20250905,2025-04-10 12:00:00,0,1,iOS applications channel,train_split_v1,commit_0001
1Is42BZa,2025-09-05,0.000000,0,0.000000,0,0.000000,0,33.260000,169,0.00000000000000000000,0.000000,0.000000,1.000000,0.000000,NULL,0.000000,0,0,0,0,0,0.00000000000000000000,0.00000000000000000000,0.00000000000000000000,0.00000000000000000000,0,0,3,2,2,NULL,NULL,fall,2025-10-07 20:30:49.843,feature_mart,snap_20250905,2025-04-10 12:00:00,0,1,iOS applications channel,train_split_v1,commit_0001
1J5GmKIj,2025-09-05,0.000000,0,0.000000,0,0.000000,0,0.000000,365,0.00000000000000000000,0.000000,0.000000,0.000000,0.000000,NULL,0.000000,0,0,0,0,0,0.00000000000000000000,0.00000000000000000000,0.00000000000000000000,0.00000000000000000000,0,0,1,2,2,NULL,NULL,fall,2025-10-07 20:30:49.843,feature_mart,snap_20250905,2025-07-13 09:00:00,0,1,Android applications channel,train_split_v1,commit_0001
1KQFj8fX,2025-09-05,0.000000,0,0.000000,0,0.000000,0,24.305000,215,0.00000000000000000000,0.000000,0.000000,0.500000,0.000000,NULL,0.000000,0,0,0,0,0,0.00000000000000000000,0.00000000000000000000,0.00000000000000000000,0.00000000000000000000,0,0,3,1,1,NULL,NULL,fall,2025-10-07 20:30:49.843,feature_mart,snap_20250905,2024-10-06 17:00:00,0,1,Android applications channel,train_split_v1,commit_0001
1KQFj8fX,2025-09-05,0.000000,0,0.000000,0,0.000000,0,24.305000,215,0.00000000000000000000,0.000000,0.000000,0.500000,0.000000,NULL,0.000000,0,0,0,0,0,0.00000000000000000000,0.00000000000000000000,0.00000000000000000000,0.00000000000000000000,0,0,3,2,2,NULL,NULL,fall,2025-10-07 20:30:49.843,feature_mart,snap_20250905,2024-10-06 17:00:00,0,1,Android applications channel,train_split_v1,commit_0001
1o6OTTPx,2025-09-05,0.000000,0,0.000000,0,0.000000,0,28.330000,188,0.00000000000000000000,0.000000,0.000000,1.000000,0.000000,NULL,0.000000,0,0,0,0,0,0.00000000000000000000,0.00000000000000000000,0.00000000000000000000,0.00000000000000000000,0,0,3,1,1,NULL,NULL,fall,2025-10-07 20:30:49.843,feature_mart,snap_20250905,2025-04-28 08:00:00,0,1,Android applications channel,train_split_v1,commit_0001
1o6OTTPx,2025-09-05,0.000000,0,0.000000,0,0.000000,0,28.330000,188,0.00000000000000000000,0.000000,0.000000,1.000000,0.000000,NULL,0.000000,0,0,0,0,0,0.00000000000000000000,0.00000000000000000000,0.00000000000000000000,0.00000000000000000000,0,0,3,2,2,NULL,NULL,fall,2025-10-07 20:30:49.843,feature_mart,snap_20250905,2025-04-28 08:00:00,0,1,Android applications channel,train_split_v1,commit_0001
1QtFYKJw,2025-09-05,0.000000,0,0.000000,0,0.000000,0,22.296666,288,0.00000000000000000000,0.000000,0.000000,0.666666,0.333333,NULL,0.000000,0,0,0,0,0,0.00000000000000000000,0.00000000000000000000,0.00000000000000000000,0.00000000000000000000,0,0,2,1,1,NULL,NULL,fall,2025-10-07 20:30:49.843,feature_mart,snap_20250905,2024-11-21 08:12:29,1,1,Email channel,train_split_v1,commit_0001
1QtFYKJw,2025-09-05,0.000000,0,0.000000,0,0.000000,0,22.296666,288,0.00000000000000000000,0.000000,0.000000,0.666666,0.333333,NULL,0.000000,0,0,0,0,0,0.00000000000000000000,0.00000000000000000000,0.00000000000000000000,0.00000000000000000000,0,0,2,2,2,NULL,NULL,fall,2025-10-07 20:30:49.843,feature_mart,snap_20250905,2024-11-21 08:12:29,1,1,Email channel,train_split_v1,commit_0001
1r1VqLIK,2025-09-05,0.000000,0,0.000000,0,0.000000,0,0.000000,365,0.00000000000000000000,0.000000,0.000000,0.000000,0.000000,NULL,0.000000,0,0,0,0,0,0.00000000000000000000,0.00000000000000000000,0.00000000000000000000,0.00000000000000000000,0,0,1,2,2,NULL,NULL,fall,2025-10-07 20:30:49.843,feature_mart,snap_20250905,2025-07-26 17:00:00,0,1,Email channel,train_split_v1,commit_0001
1SKgBiqE,2025-09-05,0.000000,0,0.000000,0,0.000000,0,0.000000,365,0.00000000000000000000,0.000000,0.000000,0.000000,0.000000,NULL,0.000000,0,0,0,0,0,0.00000000000000000000,0.00000000000000000000,0.00000000000000000000,0.00000000000000000000,0,0,1,2,2,NULL,NULL,fall,2025-10-07 20:30:49.843,feature_mart,snap_20250905,2024-09-24 09:00:00,0,1,iOS applications channel,train_split_v1,commit_0001
1tLvG1GI,2025-09-05,0.000000,0,0.000000,0,0.000000,0,0.000000,365,0.00000000000000000000,0.000000,0.000000,0.000000,0.000000,NULL,0.000000,0,0,0,0,0,0.00000000000000000000,0.00000000000000000000,0.00000000000000000000,0.00000000000000000000,0,0,1,2,2,NULL,NULL,fall,2025-10-07 20:30:49.843,feature_mart,snap_20250905,2025-08-02 15:00:00,0,1,iOS applications channel,train_split_v1,commit_0001
1y0HA9IR,2025-09-05,0.000000,0,0.000000,0,0.000000,0,25.165000,183,0.00000000000000000000,0.000000,0.500000,0.500000,0.000000,NULL,0.000000,0,0,0,0,0,0.00000000000000000000,0.00000000000000000000,0.00000000000000000000,0.00000000000000000000,0,0,3,1,1,NULL,NULL,fall,2025-10-07 20:30:49.843,feature_mart,snap_20250905,2025-02-13 19:00:00,0,1,iOS applications channel,train_split_v1,commit_0001
1y0HA9IR,2025-09-05,0.000000,0,0.000000,0,0.000000,0,25.165000,183,0.00000000000000000000,0.000000,0.500000,0.500000,0.000000,NULL,0.000000,0,0,0,0,0,0.00000000000000000000,0.00000000000000000000,0.00000000000000000000,0.00000000000000000000,0,0,3,2,2,NULL,NULL,fall,2025-10-07 20:30:49.843,feature_mart,snap_20250905,2025-02-13 19:00:00,0,1,iOS applications channel,train_split_v1,commit_0001
21Zvhc8D,2025-09-05,0.000000,0,0.000000,0,0.000000,0,8.630000,183,0.00000000000000000000,0.000000,0.000000,0.000000,1.000000,NULL,0.000000,0,0,0,0,0,0.00000000000000000000,0.00000000000000000000,0.00000000000000000000,0.00000000000000000000,0,0,3,1,1,NULL,NULL,fall,2025-10-07 20:30:49.843,feature_mart,snap_20250905,2024-11-22 15:00:00,0,1,Android applications channel,train_split_v1,commit_0001
21Zvhc8D,2025-09-05,0.000000,0,0.000000,0,0.000000,0,8.630000,183,0.00000000000000000000,0.000000,0.000000,0.000000,1.000000,NULL,0.000000,0,0,0,0,0,0.00000000000000000000,0.00000000000000000000,0.00000000000000000000,0.00000000000000000000,0,0,3,2,2,NULL,NULL,fall,2025-10-07 20:30:49.843,feature_mart,snap_20250905,2024-11-22 15:00:00,0,1,Android applications channel,train_split_v1,commit_0001
2fqmO9Jr,2025-09-05,0.000000,0,0.000000,0,0.000000,0,36.880000,125,0.00000000000000000000,0.000000,0.000000,0.000000,0.000000,NULL,0.000000,0,0,0,0,0,0.00000000000000000000,0.00000000000000000000,0.00000000000000000000,0.00000000000000000000,0,0,4,1,1,NULL,NULL,fall,2025-10-07 20:30:49.843,feature_mart,snap_20250905,2025-04-06 20:00:00,0,1,Android applications channel,train_split_v1,commit_0001
2fqmO9Jr,2025-09-05,0.000000,0,0.000000,0,0.000000,0,36.880000,125,0.00000000000000000000,0.000000,0.000000,0.000000,0.000000,NULL,0.000000,0,0,0,0,0,0.00000000000000000000,0.00000000000000000000,0.00000000000000000000,0.00000000000000000000,0,0,4,2,2,NULL,NULL,fall,2025-10-07 20:30:49.843,feature_mart,snap_20250905,2025-04-06 20:00:00,0,1,Android applications channel,train_split_v1,commit_0001
2GOb0LLz,2025-09-05,0.000000,0,0.000000,0,0.000000,0,0.000000,365,0.00000000000000000000,0.000000,0.000000,0.000000,0.000000,NULL,0.000000,0,0,0,0,0,0.00000000000000000000,0.00000000000000000000,0.00000000000000000000,0.00000000000000000000,0,0,1,2,2,NULL,NULL,fall,2025-10-07 20:30:49.843,feature_mart,snap_20250905,2025-01-24 09:00:00,0,1,Android applications channel,train_split_v1,commit_0001
2hsfWkrC,2025-09-05,0.000000,0,0.000000,0,19.785000,2,25.673333,43,0.50000000000000000000,3.000000,0.333333,0.333333,0.000000,NULL,0.000000,0,0,0,0,0,0.00000000000000000000,0.00000000000000000000,0.00000000000000000000,0.00000000000000000000,0,0,5,5,4,NULL,NULL,fall,2025-10-07 20:30:49.843,feature_mart,snap_20250905,2025-03-30 20:00:00,0,1,iOS applications channel,train_split_v1,commit_0001
2JX0NNRP,2025-09-05,0.000000,0,0.000000,0,0.000000,0,27.580000,178,0.00000000000000000000,0.000000,0.000000,0.666666,0.000000,NULL,0.000000,0,0,0,0,0,0.00000000000000000000,0.00000000000000000000,0.00000000000000000000,0.00000000000000000000,0,0,3,1,1,NULL,NULL,fall,2025-10-07 20:30:49.843,feature_mart,snap_20250905,2024-09-14 15:00:00,0,1,iOS applications channel,train_split_v1,commit_0001
2JX0NNRP,2025-09-05,0.000000,0,0.000000,0,0.000000,0,27.580000,178,0.00000000000000000000,0.000000,0.000000,0.666666,0.000000,NULL,0.000000,0,0,0,0,0,0.00000000000000000000,0.00000000000000000000,0.00000000000000000000,0.00000000000000000000,0,0,3,2,2,NULL,NULL,fall,2025-10-07 20:30:49.843,feature_mart,snap_20250905,2024-09-14 15:00:00,0,1,iOS applications channel,train_split_v1,commit_0001
2pdpf7Bh,2025-09-05,0.000000,0,0.000000,0,0.000000,0,0.000000,365,0.00000000000000000000,0.000000,0.000000,0.000000,0.000000,NULL,0.000000,0,0,0,0,0,0.00000000000000000000,0.00000000000000000000,0.00000000000000000000,0.00000000000000000000,0,0,1,2,2,NULL,NULL,fall,2025-10-07 20:30:49.843,feature_mart,snap_20250905,2025-03-20 15:00:00,0,1,iOS applications channel,train_split_v1,commit_0001
2qGFq562,2025-09-05,30.830000,1,30.830000,1,30.830000,1,33.703333,6,1.00000000000000000000,0.000000,0.000000,0.000000,0.333333,NULL,0.000000,0,0,0,0,0,0.00000000000000000000,0.00000000000000000000,0.00000000000000000000,0.00000000000000000000,0,0,5,4,5,NULL,NULL,fall,2025-10-07 20:30:49.843,feature_mart,snap_20250905,2025-08-30 13:08:15,1,1,Android applications channel,train_split_v1,commit_0001
2qGFq562,2025-09-05,30.830000,1,30.830000,1,30.830000,1,33.703333,6,1.00000000000000000000,0.000000,0.000000,0.000000,0.333333,NULL,0.000000,0,0,0,0,0,0.00000000000000000000,0.00000000000000000000,0.00000000000000000000,0.00000000000000000000,0,0,5,5,5,NULL,NULL,fall,2025-10-07 20:30:49.843,feature_mart,snap_20250905,2025-08-30 13:08:15,1,1,Android applications channel,train_split_v1,commit_0001
2SRg3oit,2025-09-05,0.000000,0,0.000000,0,0.000000,0,33.845000,200,0.00000000000000000000,0.000000,0.000000,0.500000,0.000000,NULL,0.000000,0,0,0,0,0,0.00000000000000000000,0.00000000000000000000,0.00000000000000000000,0.00000000000000000000,0,0,3,1,1,NULL,NULL,fall,2025-10-07 20:30:49.843,feature_mart,snap_20250905,2024-11-26 03:04:26,1,1,Email channel,train_split_v1,commit_0001
2SRg3oit,2025-09-05,0.000000,0,0.000000,0,0.000000,0,33.845000,200,0.00000000000000000000,0.000000,0.000000,0.500000,0.000000,NULL,0.000000,0,0,0,0,0,0.00000000000000000000,0.00000000000000000000,0.00000000000000000000,0.00000000000000000000,0,0,3,2,2,NULL,NULL,fall,2025-10-07 20:30:49.843,feature_mart,snap_20250905,2024-11-26 03:04:26,1,1,Email channel,train_split_v1,commit_0001
2ub9nLjW,2025-09-05,0.000000,0,0.000000,0,29.600000,1,29.600000,53,0.00000000000000000000,0.000000,1.000000,0.000000,0.000000,NULL,0.000000,0,0,0,0,0,0.00000000000000000000,0.00000000000000000000,0.00000000000000000000,0.00000000000000000000,0,0,4,4,5,NULL,NULL,fall,2025-10-07 20:30:49.843,feature_mart,snap_20250905,2025-05-24 20:00:00,0,1,Android applications channel,train_split_v1,commit_0001
2ub9nLjW,2025-09-05,0.000000,0,0.000000,0,29.600000,1,29.600000,53,0.00000000000000000000,0.000000,1.000000,0.000000,0.000000,NULL,0.000000,0,0,0,0,0,0.00000000000000000000,0.00000000000000000000,0.00000000000000000000,0.00000000000000000000,0,0,4,5,5,NULL,NULL,fall,2025-10-07 20:30:49.843,feature_mart,snap_20250905,2025-05-24 20:00:00,0,1,Android applications channel,train_split_v1,commit_0001
2v2R2Iy9,2025-09-05,0.000000,0,0.000000,0,0.000000,0,0.000000,365,0.00000000000000000000,0.000000,0.000000,0.000000,0.000000,NULL,0.000000,0,0,0,0,0,0.00000000000000000000,0.00000000000000000000,0.00000000000000000000,0.00000000000000000000,0,0,1,2,2,NULL,NULL,fall,2025-10-07 20:30:49.843,feature_mart,snap_20250905,2024-12-15 20:00:00,0,1,iOS applications channel,train_split_v1,commit_0001
2wDqnDtR,2025-09-05,0.000000,0,0.000000,0,0.000000,0,0.000000,365,0.00000000000000000000,0.000000,0.000000,0.000000,0.000000,NULL,0.000000,0,0,0,0,0,0.00000000000000000000,0.00000000000000000000,0.00000000000000000000,0.00000000000000000000,0,0,1,2,2,NULL,NULL,fall,2025-10-07 20:30:49.843,feature_mart,snap_20250905,2025-02-26 09:00:00,0,1,Email channel,train_split_v1,commit_0001
2YgGXI1V,2025-09-05,0.000000,0,0.000000,0,0.000000,0,0.000000,365,0.00000000000000000000,0.000000,0.000000,0.000000,0.000000,NULL,0.000000,0,0,0,0,0,0.00000000000000000000,0.00000000000000000000,0.00000000000000000000,0.00000000000000000000,0,0,1,2,2,NULL,NULL,fall,2025-10-07 20:30:49.843,feature_mart,snap_20250905,2024-10-02 13:00:00,0,1,Android applications channel,train_split_v1,commit_0001
32CgH6Da,2025-09-05,0.000000,0,0.000000,0,0.000000,0,0.000000,365,0.00000000000000000000,0.000000,0.000000,0.000000,0.000000,NULL,0.000000,0,0,0,0,0,0.00000000000000000000,0.00000000000000000000,0.00000000000000000000,0.00000000000000000000,0,0,1,2,2,NULL,NULL,fall,2025-10-07 20:30:49.843,feature_mart,snap_20250905,2025-08-15 20:00:00,0,1,iOS applications channel,train_split_v1,commit_0001
36wNBrOY,2025-09-05,0.000000,0,0.000000,0,0.000000,0,0.000000,365,0.00000000000000000000,0.000000,0.000000,0.000000,0.000000,NULL,0.000000,0,0,0,0,0,0.00000000000000000000,0.00000000000000000000,0.00000000000000000000,0.00000000000000000000,0,0,1,2,2,NULL,NULL,fall,2025-10-07 20:30:49.843,feature_mart,snap_20250905,2025-04-08 18:00:00,0,1,Android applications channel,train_split_v1,commit_0001
37EK4pEt,2025-09-05,0.000000,0,0.000000,0,0.000000,0,26.140000,237,0.00000000000000000000,0.000000,0.000000,1.000000,0.000000,NULL,0.000000,0,0,0,0,0,0.00000000000000000000,0.00000000000000000000,0.00000000000000000000,0.00000000000000000000,0,0,2,1,1,NULL,NULL,fall,2025-10-07 20:30:49.843,feature_mart,snap_20250905,2025-05-31 15:00:00,0,1,Email channel,train_split_v1,commit_0001
37EK4pEt,2025-09-05,0.000000,0,0.000000,0,0.000000,0,26.140000,237,0.00000000000000000000,0.000000,0.000000,1.000000,0.000000,NULL,0.000000,0,0,0,0,0,0.00000000000000000000,0.00000000000000000000,0.00000000000000000000,0.00000000000000000000,0,0,2,2,2,NULL,NULL,fall,2025-10-07 20:30:49.843,feature_mart,snap_20250905,2025-05-31 15:00:00,0,1,Email channel,train_split_v1,commit_0001
3ANVj77p,2025-09-05,0.000000,0,0.000000,0,0.000000,0,0.000000,365,0.00000000000000000000,0.000000,0.000000,0.000000,0.000000,NULL,0.000000,0,0,0,0,0,0.00000000000000000000,0.00000000000000000000,0.00000000000000000000,0.00000000000000000000,0,0,1,2,2,NULL,NULL,fall,2025-10-07 20:30:49.843,feature_mart,snap_20250905,2024-12-01 18:00:00,0,1,Android applications channel,train_split_v1,commit_0001
3ECqWp1O,2025-09-05,0.000000,0,0.000000,0,0.000000,0,0.000000,365,0.00000000000000000000,0.000000,0.000000,0.000000,0.000000,NULL,0.000000,0,0,0,0,0,0.00000000000000000000,0.00000000000000000000,0.00000000000000000000,0.00000000000000000000,0,0,1,2,2,NULL,NULL,fall,2025-10-07 20:30:49.843,feature_mart,snap_20250905,2025-08-19 17:00:00,0,1,iOS applications channel,train_split_v1,commit_0001
3jCIEwvJ,2025-09-05,0.000000,0,0.000000,0,0.000000,0,27.600000,259,0.00000000000000000000,0.000000,0.000000,0.000000,1.000000,NULL,0.000000,0,0,0,0,0,0.00000000000000000000,0.00000000000000000000,0.00000000000000000000,0.00000000000000000000,0,0,2,1,1,NULL,NULL,fall,2025-10-07 20:30:49.843,feature_mart,snap_20250905,2024-12-18 12:07:09,1,1,Email channel,train_split_v1,commit_0001
3jCIEwvJ,2025-09-05,0.000000,0,0.000000,0,0.000000,0,27.600000,259,0.00000000000000000000,0.000000,0.000000,0.000000,1.000000,NULL,0.000000,0,0,0,0,0,0.00000000000000000000,0.00000000000000000000,0.00000000000000000000,0.00000000000000000000,0,0,2,2,2,NULL,NULL,fall,2025-10-07 20:30:49.843,feature_mart,snap_20250905,2024-12-18 12:07:09,1,1,Email channel,train_split_v1,commit_0001
3JjhcaKM,2025-09-05,0.000000,0,25.930000,1,25.930000,1,25.930000,16,1.00000000000000000000,0.000000,0.000000,0.000000,0.000000,NULL,0.000000,0,0,0,0,0,0.00000000000000000000,0.00000000000000000000,0.00000000000000000000,0.00000000000000000000,0,0,5,4,5,NULL,NULL,fall,2025-10-07 20:30:49.843,feature_mart,snap_20250905,2025-08-11 18:00:00,0,1,Email channel,train_split_v1,commit_0001
3JjhcaKM,2025-09-05,0.000000,0,25.930000,1,25.930000,1,25.930000,16,1.00000000000000000000,0.000000,0.000000,0.000000,0.000000,NULL,0.000000,0,0,0,0,0,0.00000000000000000000,0.00000000000000000000,0.00000000000000000000,0.00000000000000000000,0,0,5,5,5,NULL,NULL,fall,2025-10-07 20:30:49.843,feature_mart,snap_20250905,2025-08-11 18:00:00,0,1,Email channel,train_split_v1,commit_0001
3keWFupv,2025-09-05,0.000000,0,0.000000,0,0.000000,0,0.000000,365,0.00000000000000000000,0.000000,0.000000,0.000000,0.000000,NULL,0.000000,0,0,0,0,0,0.00000000000000000000,0.00000000000000000000,0.00000000000000000000,0.00000000000000000000,0,0,1,2,2,NULL,NULL,fall,2025-10-07 20:30:49.843,feature_mart,snap_20250905,2025-02-14 19:00:00,0,1,Email channel,train_split_v1,commit_0001
3kZZl4Ab,2025-09-05,0.000000,0,0.000000,0,0.000000,0,21.105000,248,0.00000000000000000000,0.000000,0.000000,1.000000,0.000000,NULL,0.000000,0,0,0,0,0,0.00000000000000000000,0.00000000000000000000,0.00000000000000000000,0.00000000000000000000,0,0,2,1,1,NULL,NULL,fall,2025-10-07 20:30:49.843,feature_mart,snap_20250905,2025-02-01 17:00:00,0,1,Android applications channel,train_split_v1,commit_0001
3kZZl4Ab,2025-09-05,0.000000,0,0.000000,0,0.000000,0,21.105000,248,0.00000000000000000000,0.000000,0.000000,1.000000,0.000000,NULL,0.000000,0,0,0,0,0,0.00000000000000000000,0.00000000000000000000,0.00000000000000000000,0.00000000000000000000,0,0,2,2,2,NULL,NULL,fall,2025-10-07 20:30:49.843,feature_mart,snap_20250905,2025-02-01 17:00:00,0,1,Android applications channel,train_split_v1,commit_0001
3oobQmzv,2025-09-05,0.000000,0,0.000000,0,23.080000,2,23.080000,43,0.00000000000000000000,0.000000,0.000000,0.500000,0.000000,NULL,0.000000,0,0,0,0,0,0.00000000000000000000,0.00000000000000000000,0.00000000000000000000,0.00000000000000000000,0,0,5,5,4,NULL,NULL,fall,2025-10-07 20:30:49.843,feature_mart,snap_20250905,2025-08-21 13:00:00,0,1,Android applications channel,train_split_v1,commit_0001
3QHtDP9b,2025-09-05,0.000000,0,0.000000,0,26.810000,1,40.090000,58,1.00000000000000000000,0.000000,0.500000,0.000000,0.500000,NULL,0.000000,0,0,0,0,0,0.00000000000000000000,0.00000000000000000000,0.00000000000000000000,0.00000000000000000000,0,0,4,4,5,NULL,NULL,fall,2025-10-07 20:30:49.843,feature_mart,snap_20250905,2024-10-12 06:17:57,1,1,iOS applications channel,train_split_v1,commit_0001
3QHtDP9b,2025-09-05,0.000000,0,0.000000,0,26.810000,1,40.090000,58,1.00000000000000000000,0.000000,0.500000,0.000000,0.500000,NULL,0.000000,0,0,0,0,0,0.00000000000000000000,0.00000000000000000000,0.00000000000000000000,0.00000000000000000000,0,0,4,5,5,NULL,NULL,fall,2025-10-07 20:30:49.843,feature_mart,snap_20250905,2024-10-12 06:17:57,1,1,iOS applications channel,train_split_v1,commit_0001
3udbjLT6,2025-09-05,0.000000,0,0.000000,0,0.000000,0,0.000000,365,0.00000000000000000000,0.000000,0.000000,0.000000,0.000000,NULL,0.000000,0,0,0,0,0,0.00000000000000000000,0.00000000000000000000,0.00000000000000000000,0.00000000000000000000,0,0,1,2,2,NULL,NULL,fall,2025-10-07 20:30:49.843,feature_mart,snap_20250905,2025-07-17 10:00:00,0,1,Android applications channel,train_split_v1,commit_0001
3UPx98aJ,2025-09-05,0.000000,0,0.000000,0,0.000000,0,0.000000,365,0.00000000000000000000,0.000000,0.000000,0.000000,0.000000,NULL,0.000000,0,0,0,0,0,0.00000000000000000000,0.00000000000000000000,0.00000000000000000000,0.00000000000000000000,0,0,1,2,2,NULL,NULL,fall,2025-10-07 20:30:49.843,feature_mart,snap_20250905,2024-11-19 09:00:00,0,1,Android applications channel,train_split_v1,commit_0001
3whlIzHi,2025-09-05,0.000000,0,0.000000,0,0.000000,0,20.400000,161,0.00000000000000000000,0.000000,0.000000,1.000000,0.000000,NULL,0.000000,0,0,0,0,0,0.00000000000000000000,0.00000000000000000000,0.00000000000000000000,0.00000000000000000000,0,0,3,1,1,NULL,NULL,fall,2025-10-07 20:30:49.843,feature_mart,snap_20250905,2025-07-11 16:00:00,0,1,Email channel,train_split_v1,commit_0001
3whlIzHi,2025-09-05,0.000000,0,0.000000,0,0.000000,0,20.400000,161,0.00000000000000000000,0.000000,0.000000,1.000000,0.000000,NULL,0.000000,0,0,0,0,0,0.00000000000000000000,0.00000000000000000000,0.00000000000000000000,0.00000000000000000000,0,0,3,2,2,NULL,NULL,fall,2025-10-07 20:30:49.843,feature_mart,snap_20250905,2025-07-11 16:00:00,0,1,Email channel,train_split_v1,commit_0001
3xJ7gT2H,2025-09-05,0.000000,0,0.000000,0,0.000000,0,0.000000,365,0.00000000000000000000,0.000000,0.000000,0.000000,0.000000,NULL,0.000000,0,0,0,0,0,0.00000000000000000000,0.00000000000000000000,0.00000000000000000000,0.00000000000000000000,0,0,1,2,2,NULL,NULL,fall,2025-10-07 20:30:49.843,feature_mart,snap_20250905,2025-05-27 20:00:00,0,1,Android applications channel,train_split_v1,commit_0001
41l76c1z,2025-09-05,36.180000,1,22.925000,2,22.925000,2,22.925000,4,0.00000000000000000000,5.790000,0.000000,0.500000,0.000000,NULL,0.000000,0,0,0,0,0,0.00000000000000000000,0.00000000000000000000,0.00000000000000000000,0.00000000000000000000,0,0,5,5,4,NULL,NULL,fall,2025-10-07 20:30:49.843,feature_mart,snap_20250905,2025-08-31 15:46:05,1,1,iOS applications channel,train_split_v1,commit_0001
41U5iE6F,2025-09-05,0.000000,0,0.000000,0,0.000000,0,0.000000,365,0.00000000000000000000,0.000000,0.000000,0.000000,0.000000,NULL,0.000000,0,0,0,0,0,0.00000000000000000000,0.00000000000000000000,0.00000000000000000000,0.00000000000000000000,0,0,1,2,2,NULL,NULL,fall,2025-10-07 20:30:49.843,feature_mart,snap_20250905,2024-11-18 09:00:00,0,1,Email channel,train_split_v1,commit_0001
41XJOLlX,2025-09-05,0.000000,0,0.000000,0,0.000000,0,41.475000,213,0.00000000000000000000,0.000000,0.000000,0.500000,0.500000,NULL,0.000000,0,0,0,0,0,0.00000000000000000000,0.00000000000000000000,0.00000000000000000000,0.00000000000000000000,0,0,3,1,1,NULL,NULL,fall,2025-10-07 20:30:49.843,feature_mart,snap_20250905,2024-12-04 05:17:53,1,1,Email channel,train_split_v1,commit_0001
41XJOLlX,2025-09-05,0.000000,0,0.000000,0,0.000000,0,41.475000,213,0.00000000000000000000,0.000000,0.000000,0.500000,0.500000,NULL,0.000000,0,0,0,0,0,0.00000000000000000000,0.00000000000000000000,0.00000000000000000000,0.00000000000000000000,0,0,3,2,2,NULL,NULL,fall,2025-10-07 20:30:49.843,feature_mart,snap_20250905,2024-12-04 05:17:53,1,1,Email channel,train_split_v1,commit_0001
48i2GDrm,2025-09-05,0.000000,0,44.460000,1,41.850000,2,41.850000,27,0.00000000000000000000,0.000000,0.000000,0.000000,0.500000,NULL,0.000000,0,0,0,0,0,0.00000000000000000000,0.00000000000000000000,0.00000000000000000000,0.00000000000000000000,0,0,5,5,5,NULL,NULL,fall,2025-10-07 20:30:49.843,feature_mart,snap_20250905,2025-08-09 14:51:44,1,1,Android applications channel,train_split_v1,commit_0001
4HcQv4XN,2025-09-05,0.000000,0,0.000000,0,25.070000,1,25.070000,69,0.00000000000000000000,0.000000,0.000000,1.000000,0.000000,NULL,0.000000,0,0,0,0,0,0.00000000000000000000,0.00000000000000000000,0.00000000000000000000,0.00000000000000000000,0,0,4,4,4,NULL,NULL,fall,2025-10-07 20:30:49.843,feature_mart,snap_20250905,2024-12-22 18:00:00,0,1,Android applications channel,train_split_v1,commit_0001
4HcQv4XN,2025-09-05,0.000000,0,0.000000,0,25.070000,1,25.070000,69,0.00000000000000000000,0.000000,0.000000,1.000000,0.000000,NULL,0.000000,0,0,0,0,0,0.00000000000000000000,0.00000000000000000000,0.00000000000000000000,0.00000000000000000000,0,0,4,5,4,NULL,NULL,fall,2025-10-07 20:30:49.843,feature_mart,snap_20250905,2024-12-22 18:00:00,0,1,Android applications channel,train_split_v1,commit_0001
4i3erXY2,2025-09-05,0.000000,0,0.000000,0,0.000000,0,0.000000,365,0.00000000000000000000,0.000000,0.000000,0.000000,0.000000,NULL,0.000000,0,0,0,0,0,0.00000000000000000000,0.00000000000000000000,0.00000000000000000000,0.00000000000000000000,0,0,1,2,2,NULL,NULL,fall,2025-10-07 20:30:49.843,feature_mart,snap_20250905,2025-06-24 20:00:00,0,1,Android applications channel,train_split_v1,commit_0001
4JEdfryi,2025-09-05,0.000000,0,0.000000,0,0.000000,0,0.000000,365,0.00000000000000000000,0.000000,0.000000,0.000000,0.000000,NULL,0.000000,0,0,0,0,0,0.00000000000000000000,0.00000000000000000000,0.00000000000000000000,0.00000000000000000000,0,0,1,2,2,NULL,NULL,fall,2025-10-07 20:30:49.843,feature_mart,snap_20250905,2025-03-13 16:00:00,0,1,Email channel,train_split_v1,commit_0001
4KPONu3O,2025-09-05,0.000000,0,0.000000,0,0.000000,0,29.300000,252,0.00000000000000000000,0.000000,0.000000,0.000000,0.000000,NULL,0.000000,0,0,0,0,0,0.00000000000000000000,0.00000000000000000000,0.00000000000000000000,0.00000000000000000000,0,0,2,1,1,NULL,NULL,fall,2025-10-07 20:30:49.843,feature_mart,snap_20250905,2024-11-20 10:00:00,0,1,iOS applications channel,train_split_v1,commit_0001
4KPONu3O,2025-09-05,0.000000,0,0.000000,0,0.000000,0,29.300000,252,0.00000000000000000000,0.000000,0.000000,0.000000,0.000000,NULL,0.000000,0,0,0,0,0,0.00000000000000000000,0.00000000000000000000,0.00000000000000000000,0.00000000000000000000,0,0,2,2,2,NULL,NULL,fall,2025-10-07 20:30:49.843,feature_mart,snap_20250905,2024-11-20 10:00:00,0,1,iOS applications channel,train_split_v1,commit_0001
4S5jIc1x,2025-09-05,0.000000,0,0.000000,0,26.800000,1,31.616666,51,0.00000000000000000000,0.000000,0.333333,0.666666,0.000000,NULL,0.000000,0,0,0,0,0,0.00000000000000000000,0.00000000000000000000,0.00000000000000000000,0.00000000000000000000,0,0,5,4,5,NULL,NULL,fall,2025-10-07 20:30:49.843,feature_mart,snap_20250905,2025-05-25 10:00:00,0,1,Android applications channel,train_split_v1,commit_0001
4S5jIc1x,2025-09-05,0.000000,0,0.000000,0,26.800000,1,31.616666,51,0.00000000000000000000,0.000000,0.333333,0.666666,0.000000,NULL,0.000000,0,0,0,0,0,0.00000000000000000000,0.00000000000000000000,0.00000000000000000000,0.00000000000000000000,0,0,5,5,5,NULL,NULL,fall,2025-10-07 20:30:49.843,feature_mart,snap_20250905,2025-05-25 10:00:00,0,1,Android applications channel,train_split_v1,commit_0001
4SFhbOMZ,2025-09-05,0.000000,0,0.000000,0,16.570000,1,13.910000,46,0.00000000000000000000,4.570000,0.000000,0.000000,0.000000,NULL,0.000000,0,0,0,0,0,0.00000000000000000000,0.00000000000000000000,0.00000000000000000000,0.00000000000000000000,0,0,5,4,4,NULL,NULL,fall,2025-10-07 20:30:49.843,feature_mart,snap_20250905,2025-07-20 09:58:04,1,1,Android applications channel,train_split_v1,commit_0001
4SFhbOMZ,2025-09-05,0.000000,0,0.000000,0,16.570000,1,13.910000,46,0.00000000000000000000,4.570000,0.000000,0.000000,0.000000,NULL,0.000000,0,0,0,0,0,0.00000000000000000000,0.00000000000000000000,0.00000000000000000000,0.00000000000000000000,0,0,5,5,4,NULL,NULL,fall,2025-10-07 20:30:49.843,feature_mart,snap_20250905,2025-07-20 09:58:04,1,1,Android applications channel,train_split_v1,commit_0001
4uG4yAM6,2025-09-05,0.000000,0,41.150000,1,41.150000,1,28.282500,18,1.00000000000000000000,0.000000,0.000000,0.750000,0.250000,NULL,0.000000,0,0,0,0,0,0.00000000000000000000,0.00000000000000000000,0.00000000000000000000,0.00000000000000000000,0,0,5,4,5,NULL,NULL,fall,2025-10-07 20:30:49.843,feature_mart,snap_20250905,2025-08-17 12:38:54,1,1,Email channel,train_split_v1,commit_0001
4uG4yAM6,2025-09-05,0.000000,0,41.150000,1,41.150000,1,28.282500,18,1.00000000000000000000,0.000000,0.000000,0.750000,0.250000,NULL,0.000000,0,0,0,0,0,0.00000000000000000000,0.00000000000000000000,0.00000000000000000000,0.00000000000000000000,0,0,5,5,5,NULL,NULL,fall,2025-10-07 20:30:49.843,feature_mart,snap_20250905,2025-08-17 12:38:54,1,1,Email channel,train_split_v1,commit_0001
4xHG6r1k,2025-09-05,0.000000,0,0.000000,0,0.000000,0,27.930000,248,0.00000000000000000000,0.000000,0.000000,0.000000,1.000000,NULL,0.000000,0,0,0,0,0,0.00000000000000000000,0.00000000000000000000,0.00000000000000000000,0.00000000000000000000,0,0,2,1,1,NULL,NULL,fall,2025-10-07 20:30:49.843,feature_mart,snap_20250905,2025-08-05 18:00:00,0,1,Android applications channel,train_split_v1,commit_0001
4xHG6r1k,2025-09-05,0.000000,0,0.000000,0,0.000000,0,27.930000,248,0.00000000000000000000,0.000000,0.000000,0.000000,1.000000,NULL,0.000000,0,0,0,0,0,0.00000000000000000000,0.00000000000000000000,0.00000000000000000000,0.00000000000000000000,0,0,2,2,2,NULL,NULL,fall,2025-10-07 20:30:49.843,feature_mart,snap_20250905,2025-08-05 18:00:00,0,1,Android applications channel,train_split_v1,commit_0001
51vTfGPl,2025-09-05,0.000000,0,0.000000,0,0.000000,0,43.160000,276,0.00000000000000000000,0.000000,0.000000,1.000000,0.000000,NULL,0.000000,0,0,0,0,0,0.00000000000000000000,0.00000000000000000000,0.00000000000000000000,0.00000000000000000000,0,0,2,1,1,NULL,NULL,fall,2025-10-07 20:30:49.843,feature_mart,snap_20250905,2025-01-24 19:00:00,0,1,Email channel,train_split_v1,commit_0001
51vTfGPl,2025-09-05,0.000000,0,0.000000,0,0.000000,0,43.160000,276,0.00000000000000000000,0.000000,0.000000,1.000000,0.000000,NULL,0.000000,0,0,0,0,0,0.00000000000000000000,0.00000000000000000000,0.00000000000000000000,0.00000000000000000000,0,0,2,2,2,NULL,NULL,fall,2025-10-07 20:30:49.843,feature_mart,snap_20250905,2025-01-24 19:00:00,0,1,Email channel,train_split_v1,commit_0001
57Y3c5wn,2025-09-05,0.000000,0,0.000000,0,0.000000,0,18.960000,105,0.00000000000000000000,0.000000,0.500000,0.000000,0.000000,NULL,0.000000,0,0,0,0,0,0.00000000000000000000,0.00000000000000000000,0.00000000000000000000,0.00000000000000000000,0,0,4,1,1,NULL,NULL,fall,2025-10-07 20:30:49.843,feature_mart,snap_20250905,2024-09-13 09:00:00,0,1,Email channel,train_split_v1,commit_0001
57Y3c5wn,2025-09-05,0.000000,0,0.000000,0,0.000000,0,18.960000,105,0.00000000000000000000,0.000000,0.500000,0.000000,0.000000,NULL,0.000000,0,0,0,0,0,0.00000000000000000000,0.00000000000000000000,0.00000000000000000000,0.00000000000000000000,0,0,4,2,2,NULL,NULL,fall,2025-10-07 20:30:49.843,feature_mart,snap_20250905,2024-09-13 09:00:00,0,1,Email channel,train_split_v1,commit_0001
5ETbB8Pk,2025-09-05,38.580000,1,38.580000,1,38.230000,2,38.230000,2,0.50000000000000000000,0.000000,0.000000,1.000000,0.000000,NULL,0.000000,1,0,0,1,0,0.00000000000000000000,0.00000000000000000000,1.00000000000000000000,0.00000000000000000000,0,0,5,5,5,NULL,NULL,fall,2025-10-07 20:30:49.843,feature_mart,snap_20250905,2025-09-03 10:53:54,1,1,iOS applications channel,train_split_v1,commit_0001
5gGUNhsh,2025-09-05,0.000000,0,0.000000,0,0.000000,0,26.656666,139,0.00000000000000000000,0.000000,0.000000,0.666666,0.333333,NULL,0.000000,0,0,0,0,0,0.00000000000000000000,0.00000000000000000000,0.00000000000000000000,0.00000000000000000000,0,0,3,1,1,NULL,NULL,fall,2025-10-07 20:30:49.843,feature_mart,snap_20250905,2025-07-17 09:00:00,0,1,Android applications channel,train_split_v1,commit_0001
5gGUNhsh,2025-09-05,0.000000,0,0.000000,0,0.000000,0,26.656666,139,0.00000000000000000000,0.000000,0.000000,0.666666,0.333333,NULL,0.000000,0,0,0,0,0,0.00000000000000000000,0.00000000000000000000,0.00000000000000000000,0.00000000000000000000,0,0,3,2,2,NULL,NULL,fall,2025-10-07 20:30:49.843,feature_mart,snap_20250905,2025-07-17 09:00:00,0,1,Android applications channel,train_split_v1,commit_0001
5Gj1Bf86,2025-09-05,0.000000,0,0.000000,0,0.000000,0,0.000000,365,0.00000000000000000000,0.000000,0.000000,0.000000,0.000000,NULL,0.000000,0,0,0,0,0,0.00000000000000000000,0.00000000000000000000,0.00000000000000000000,0.00000000000000000000,0,0,1,2,2,NULL,NULL,fall,2025-10-07 20:30:49.843,feature_mart,snap_20250905,2025-04-28 20:00:00,0,1,Android applications channel,train_split_v1,commit_0001
5HZKRNjh,2025-09-05,0.000000,0,0.000000,0,0.000000,0,0.000000,365,0.00000000000000000000,0.000000,0.000000,0.000000,0.000000,NULL,0.000000,0,0,0,0,0,0.00000000000000000000,0.00000000000000000000,0.00000000000000000000,0.00000000000000000000,0,0,1,2,2,NULL,NULL,fall,2025-10-07 20:30:49.843,feature_mart,snap_20250905,2025-02-26 18:00:00,0,1,Email channel,train_split_v1,commit_0001
5IEPXjxz,2025-09-05,0.000000,0,0.000000,0,0.000000,0,0.000000,365,0.00000000000000000000,0.000000,0.000000,0.000000,0.000000,NULL,0.000000,0,0,0,0,0,0.00000000000000000000,0.00000000000000000000,0.00000000000000000000,0.00000000000000000000,0,0,1,2,2,NULL,NULL,fall,2025-10-07 20:30:49.843,feature_mart,snap_20250905,2024-11-08 18:00:00,0,1,Android applications channel,train_split_v1,commit_0001
5IfijoyS,2025-09-05,0.000000,0,0.000000,0,0.000000,0,0.000000,365,0.00000000000000000000,0.000000,0.000000,0.000000,0.000000,NULL,0.000000,0,0,0,0,0,0.00000000000000000000,0.00000000000000000000,0.00000000000000000000,0.00000000000000000000,0,0,1,2,2,NULL,NULL,fall,2025-10-07 20:30:49.843,feature_mart,snap_20250905,2025-06-07 11:00:00,0,1,Android applications channel,train_split_v1,commit_0001
5KRUhoVG,2025-09-05,0.000000,0,0.000000,0,29.260000,1,29.260000,43,0.00000000000000000000,0.000000,0.000000,1.000000,0.000000,NULL,0.000000,0,0,0,0,0,0.00000000000000000000,0.00000000000000000000,0.00000000000000000000,0.00000000000000000000,0,0,5,4,5,NULL,NULL,fall,2025-10-07 20:30:49.843,feature_mart,snap_20250905,2025-07-23 07:31:06,1,1,iOS applications channel,train_split_v1,commit_0001
5KRUhoVG,2025-09-05,0.000000,0,0.000000,0,29.260000,1,29.260000,43,0.00000000000000000000,0.000000,0.000000,1.000000,0.000000,NULL,0.000000,0,0,0,0,0,0.00000000000000000000,0.00000000000000000000,0.00000000000000000000,0.00000000000000000000,0,0,5,5,5,NULL,NULL,fall,2025-10-07 20:30:49.843,feature_mart,snap_20250905,2025-07-23 07:31:06,1,1,iOS applications channel,train_split_v1,commit_0001
5MI0a58X,2025-09-05,0.000000,0,0.000000,0,0.000000,0,0.000000,365,0.00000000000000000000,0.000000,0.000000,0.000000,0.000000,NULL,0.000000,0,0,0,0,0,0.00000000000000000000,0.00000000000000000000,0.00000000000000000000,0.00000000000000000000,0,0,1,2,2,NULL,NULL,fall,2025-10-07 20:30:49.843,feature_mart,snap_20250905,2024-11-19 14:00:00,0,1,Android applications channel,train_split_v1,commit_0001
5QqfPIyl,2025-09-05,29.140000,1,29.140000,1,29.140000,1,32.220000,7,0.00000000000000000000,0.000000,0.333333,0.333333,0.333333,NULL,0.000000,0,0,0,0,0,0.00000000000000000000,0.00000000000000000000,0.00000000000000000000,0.00000000000000000000,0,0,5,4,5,NULL,NULL,fall,2025-10-07 20:30:49.843,feature_mart,snap_20250905,2025-01-14 05:12:21,1,1,Email channel,train_split_v1,commit_0001
5QqfPIyl,2025-09-05,29.140000,1,29.140000,1,29.140000,1,32.220000,7,0.00000000000000000000,0.000000,0.333333,0.333333,0.333333,NULL,0.000000,0,0,0,0,0,0.00000000000000000000,0.00000000000000000000,0.00000000000000000000,0.00000000000000000000,0,0,5,5,5,NULL,NULL,fall,2025-10-07 20:30:49.843,feature_mart,snap_20250905,2025-01-14 05:12:21,1,1,Email channel,train_split_v1,commit_0001
5sRIkeC8,2025-09-05,0.000000,0,0.000000,0,0.000000,0,0.000000,365,0.00000000000000000000,0.000000,0.000000,0.000000,0.000000,NULL,0.000000,0,0,0,0,0,0.00000000000000000000,0.00000000000000000000,0.00000000000000000000,0.00000000000000000000,0,0,1,2,2,NULL,NULL,fall,2025-10-07 20:30:49.843,feature_mart,snap_20250905,2025-08-29 15:00:00,0,1,iOS applications channel,train_split_v1,commit_0001
5t2kTT7S,2025-09-05,0.000000,0,0.000000,0,0.000000,0,0.000000,365,0.00000000000000000000,0.000000,0.000000,0.000000,0.000000,NULL,0.000000,0,0,0,0,0,0.00000000000000000000,0.00000000000000000000,0.00000000000000000000,0.00000000000000000000,0,0,1,2,2,NULL,NULL,fall,2025-10-07 20:30:49.843,feature_mart,snap_20250905,2025-08-31 08:00:00,0,1,Android applications channel,train_split_v1,commit_0001
5TCfZR92,2025-09-05,0.000000,0,0.000000,0,0.000000,0,0.000000,365,0.00000000000000000000,0.000000,0.000000,0.000000,0.000000,NULL,0.000000,0,0,0,0,0,0.00000000000000000000,0.00000000000000000000,0.00000000000000000000,0.00000000000000000000,0,0,1,2,2,NULL,NULL,fall,2025-10-07 20:30:49.843,feature_mart,snap_20250905,2025-08-04 18:00:00,0,1,Android applications channel,train_split_v1,commit_0001
5yC366yy,2025-09-05,0.000000,0,0.000000,0,41.990000,1,40.930000,69,0.00000000000000000000,0.000000,0.000000,0.000000,1.000000,NULL,0.000000,0,0,0,0,0,0.00000000000000000000,0.00000000000000000000,0.00000000000000000000,0.00000000000000000000,0,0,4,4,5,NULL,NULL,fall,2025-10-07 20:30:49.843,feature_mart,snap_20250905,2025-05-12 11:00:00,0,1,iOS applications channel,train_split_v1,commit_0001
5yC366yy,2025-09-05,0.000000,0,0.000000,0,41.990000,1,40.930000,69,0.00000000000000000000,0.000000,0.000000,0.000000,1.000000,NULL,0.000000,0,0,0,0,0,0.00000000000000000000,0.00000000000000000000,0.00000000000000000000,0.00000000000000000000,0,0,4,5,5,NULL,NULL,fall,2025-10-07 20:30:49.843,feature_mart,snap_20250905,2025-05-12 11:00:00,0,1,iOS applications channel,train_split_v1,commit_0001
63SAIcY9,2025-09-05,0.000000,0,0.000000,0,0.000000,0,31.765000,251,0.00000000000000000000,0.000000,0.000000,0.500000,0.000000,NULL,0.000000,0,0,0,0,0,0.00000000000000000000,0.00000000000000000000,0.00000000000000000000,0.00000000000000000000,0,0,2,1,1,NULL,NULL,fall,2025-10-07 20:30:49.843,feature_mart,snap_20250905,2024-11-04 08:00:00,0,1,Email channel,train_split_v1,commit_0001
63SAIcY9,2025-09-05,0.000000,0,0.000000,0,0.000000,0,31.765000,251,0.00000000000000000000,0.000000,0.000000,0.500000,0.000000,NULL,0.000000,0,0,0,0,0,0.00000000000000000000,0.00000000000000000000,0.00000000000000000000,0.00000000000000000000,0,0,2,2,2,NULL,NULL,fall,2025-10-07 20:30:49.843,feature_mart,snap_20250905,2024-11-04 08:00:00,0,1,Email channel,train_split_v1,commit_0001
6an7m9Vh,2025-09-05,0.000000,0,0.000000,0,0.000000,0,31.046666,91,0.00000000000000000000,0.000000,0.000000,0.000000,0.333333,NULL,0.000000,0,0,0,0,0,0.00000000000000000000,0.00000000000000000000,0.00000000000000000000,0.00000000000000000000,0,0,4,1,1,NULL,NULL,fall,2025-10-07 20:30:49.843,feature_mart,snap_20250905,2025-07-12 20:00:00,0,1,iOS applications channel,train_split_v1,commit_0001
6an7m9Vh,2025-09-05,0.000000,0,0.000000,0,0.000000,0,31.046666,91,0.00000000000000000000,0.000000,0.000000,0.000000,0.333333,NULL,0.000000,0,0,0,0,0,0.00000000000000000000,0.00000000000000000000,0.00000000000000000000,0.00000000000000000000,0,0,4,2,2,NULL,NULL,fall,2025-10-07 20:30:49.843,feature_mart,snap_20250905,2025-07-12 20:00:00,0,1,iOS applications channel,train_split_v1,commit_0001
6con53S4,2025-09-05,0.000000,0,0.000000,0,0.000000,0,31.920000,175,0.00000000000000000000,0.000000,0.000000,0.000000,1.000000,NULL,0.000000,0,0,0,0,0,0.00000000000000000000,0.00000000000000000000,0.00000000000000000000,0.00000000000000000000,0,0,3,1,1,NULL,NULL,fall,2025-10-07 20:30:49.843,feature_mart,snap_20250905,2025-06-26 17:00:00,0,1,Android applications channel,train_split_v1,commit_0001
6con53S4,2025-09-05,0.000000,0,0.000000,0,0.000000,0,31.920000,175,0.00000000000000000000,0.000000,0.000000,0.000000,1.000000,NULL,0.000000,0,0,0,0,0,0.00000000000000000000,0.00000000000000000000,0.00000000000000000000,0.00000000000000000000,0,0,3,2,2,NULL,NULL,fall,2025-10-07 20:30:49.843,feature_mart,snap_20250905,2025-06-26 17:00:00,0,1,Android applications channel,train_split_v1,commit_0001
6HfPQBGx,2025-09-05,0.000000,0,0.000000,0,0.000000,0,0.000000,365,0.00000000000000000000,0.000000,0.000000,0.000000,0.000000,NULL,0.000000,0,0,0,0,0,0.00000000000000000000,0.00000000000000000000,0.00000000000000000000,0.00000000000000000000,0,0,1,2,2,NULL,NULL,fall,2025-10-07 20:30:49.843,feature_mart,snap_20250905,2025-03-25 10:00:00,0,1,Email channel,train_split_v1,commit_0001
6LEZKRCl,2025-09-05,0.000000,0,0.000000,0,0.000000,0,0.000000,365,0.00000000000000000000,0.000000,0.000000,0.000000,0.000000,NULL,0.000000,0,0,0,0,0,0.00000000000000000000,0.00000000000000000000,0.00000000000000000000,0.00000000000000000000,0,0,1,2,2,NULL,NULL,fall,2025-10-07 20:30:49.843,feature_mart,snap_20250905,2025-06-23 10:00:00,0,1,Email channel,train_split_v1,commit_0001
6lrrC4jc,2025-09-05,0.000000,0,0.000000,0,0.000000,0,13.120000,122,0.00000000000000000000,0.000000,0.000000,0.000000,0.000000,NULL,0.000000,0,0,0,0,0,0.00000000000000000000,0.00000000000000000000,0.00000000000000000000,0.00000000000000000000,0,0,4,1,1,NULL,NULL,fall,2025-10-07 20:30:49.843,feature_mart,snap_20250905,2025-05-06 13:14:13,1,1,iOS applications channel,train_split_v1,commit_0001
6lrrC4jc,2025-09-05,0.000000,0,0.000000,0,0.000000,0,13.120000,122,0.00000000000000000000,0.000000,0.000000,0.000000,0.000000,NULL,0.000000,0,0,0,0,0,0.00000000000000000000,0.00000000000000000000,0.00000000000000000000,0.00000000000000000000,0,0,4,2,2,NULL,NULL,fall,2025-10-07 20:30:49.843,feature_mart,snap_20250905,2025-05-06 13:14:13,1,1,iOS applications channel,train_split_v1,commit_0001
6XfPKoIV,2025-09-05,0.000000,0,0.000000,0,0.000000,0,0.000000,365,0.00000000000000000000,0.000000,0.000000,0.000000,0.000000,NULL,0.000000,0,0,0,0,0,0.00000000000000000000,0.00000000000000000000,0.00000000000000000000,0.00000000000000000000,0,0,1,2,2,NULL,NULL,fall,2025-10-07 20:30:49.843,feature_mart,snap_20250905,2025-02-18 08:00:00,0,1,iOS applications channel,train_split_v1,commit_0001
7lH9zMKO,2025-09-05,25.440000,1,25.440000,1,25.440000,1,25.440000,3,0.00000000000000000000,0.000000,1.000000,0.000000,0.000000,NULL,0.000000,0,0,0,0,0,0.00000000000000000000,0.00000000000000000000,0.00000000000000000000,0.00000000000000000000,0,0,5,4,4,NULL,NULL,fall,2025-10-07 20:30:49.843,feature_mart,snap_20250905,2025-08-31 07:18:58,1,1,Android applications channel,train_split_v1,commit_0001
7lH9zMKO,2025-09-05,25.440000,1,25.440000,1,25.440000,1,25.440000,3,0.00000000000000000000,0.000000,1.000000,0.000000,0.000000,NULL,0.000000,0,0,0,0,0,0.00000000000000000000,0.00000000000000000000,0.00000000000000000000,0.00000000000000000000,0,0,5,5,4,NULL,NULL,fall,2025-10-07 20:30:49.843,feature_mart,snap_20250905,2025-08-31 07:18:58,1,1,Android applications channel,train_split_v1,commit_0001
7uMdX7ON,2025-09-05,0.000000,0,0.000000,0,0.000000,0,0.000000,365,0.00000000000000000000,0.000000,0.000000,0.000000,0.000000,NULL,0.000000,0,0,0,0,0,0.00000000000000000000,0.00000000000000000000,0.00000000000000000000,0.00000000000000000000,0,0,1,2,2,NULL,NULL,fall,2025-10-07 20:30:49.843,feature_mart,snap_20250905,2024-12-06 08:00:00,0,1,Email channel,train_split_v1,commit_0001
7vsDPIHF,2025-09-05,0.000000,0,0.000000,0,0.000000,0,0.000000,365,0.00000000000000000000,0.000000,0.000000,0.000000,0.000000,NULL,0.000000,0,0,0,0,0,0.00000000000000000000,0.00000000000000000000,0.00000000000000000000,0.00000000000000000000,0,0,1,2,2,NULL,NULL,fall,2025-10-07 20:30:49.843,feature_mart,snap_20250905,2025-03-23 14:00:00,0,1,Email channel,train_split_v1,commit_0001
85PtmjHW,2025-09-05,0.000000,0,0.000000,0,0.000000,0,23.790000,122,0.00000000000000000000,0.000000,0.000000,0.000000,1.000000,NULL,0.000000,0,0,0,0,0,0.00000000000000000000,0.00000000000000000000,0.00000000000000000000,0.00000000000000000000,0,0,4,1,1,NULL,NULL,fall,2025-10-07 20:30:49.843,feature_mart,snap_20250905,2025-02-01 20:00:00,0,1,Email channel,train_split_v1,commit_0001
85PtmjHW,2025-09-05,0.000000,0,0.000000,0,0.000000,0,23.790000,122,0.00000000000000000000,0.000000,0.000000,0.000000,1.000000,NULL,0.000000,0,0,0,0,0,0.00000000000000000000,0.00000000000000000000,0.00000000000000000000,0.00000000000000000000,0,0,4,2,2,NULL,NULL,fall,2025-10-07 20:30:49.843,feature_mart,snap_20250905,2025-02-01 20:00:00,0,1,Email channel,train_split_v1,commit_0001
8deQOzxG,2025-09-05,0.000000,0,0.000000,0,31.650000,1,31.650000,30,0.00000000000000000000,0.000000,0.000000,1.000000,0.000000,NULL,0.000000,0,0,0,0,0,0.00000000000000000000,0.00000000000000000000,0.00000000000000000000,0.00000000000000000000,0,0,5,4,5,NULL,NULL,fall,2025-10-07 20:30:49.843,feature_mart,snap_20250905,2025-08-06 10:56:10,1,1,Email channel,train_split_v1,commit_0001
8deQOzxG,2025-09-05,0.000000,0,0.000000,0,31.650000,1,31.650000,30,0.00000000000000000000,0.000000,0.000000,1.000000,0.000000,NULL,0.000000,0,0,0,0,0,0.00000000000000000000,0.00000000000000000000,0.00000000000000000000,0.00000000000000000000,0,0,5,5,5,NULL,NULL,fall,2025-10-07 20:30:49.843,feature_mart,snap_20250905,2025-08-06 10:56:10,1,1,Email channel,train_split_v1,commit_0001
8Ju6NoPe,2025-09-05,0.000000,0,0.000000,0,0.000000,0,0.000000,365,0.00000000000000000000,0.000000,0.000000,0.000000,0.000000,NULL,0.000000,0,0,0,0,0,0.00000000000000000000,0.00000000000000000000,0.00000000000000000000,0.00000000000000000000,0,0,1,2,2,NULL,NULL,fall,2025-10-07 20:30:49.843,feature_mart,snap_20250905,2025-06-25 11:00:00,0,1,Android applications channel,train_split_v1,commit_0001
8L4V6lOR,2025-09-05,0.000000,0,0.000000,0,0.000000,0,32.580000,287,0.00000000000000000000,0.000000,1.000000,0.000000,0.000000,NULL,0.000000,0,0,0,0,0,0.00000000000000000000,0.00000000000000000000,0.00000000000000000000,0.00000000000000000000,0,0,2,1,1,NULL,NULL,fall,2025-10-07 20:30:49.843,feature_mart,snap_20250905,2025-04-23 20:00:00,0,1,Email channel,train_split_v1,commit_0001
8L4V6lOR,2025-09-05,0.000000,0,0.000000,0,0.000000,0,32.580000,287,0.00000000000000000000,0.000000,1.000000,0.000000,0.000000,NULL,0.000000,0,0,0,0,0,0.00000000000000000000,0.00000000000000000000,0.00000000000000000000,0.00000000000000000000,0,0,2,2,2,NULL,NULL,fall,2025-10-07 20:30:49.843,feature_mart,snap_20250905,2025-04-23 20:00:00,0,1,Email channel,train_split_v1,commit_0001
8m1Z4FIt,2025-09-05,0.000000,0,25.260000,1,25.260000,1,25.260000,27,1.00000000000000000000,6.000000,0.000000,0.000000,1.000000,NULL,0.000000,0,0,0,0,0,0.00000000000000000000,0.00000000000000000000,0.00000000000000000000,0.00000000000000000000,0,0,5,4,4,NULL,NULL,fall,2025-10-07 20:30:49.843,feature_mart,snap_20250905,2024-10-26 20:00:00,0,1,iOS applications channel,train_split_v1,commit_0001
8m1Z4FIt,2025-09-05,0.000000,0,25.260000,1,25.260000,1,25.260000,27,1.00000000000000000000,6.000000,0.000000,0.000000,1.000000,NULL,0.000000,0,0,0,0,0,0.00000000000000000000,0.00000000000000000000,0.00000000000000000000,0.00000000000000000000,0,0,5,5,4,NULL,NULL,fall,2025-10-07 20:30:49.843,feature_mart,snap_20250905,2024-10-26 20:00:00,0,1,iOS applications channel,train_split_v1,commit_0001
8nXiWqsu,2025-09-05,0.000000,0,0.000000,0,0.000000,0,28.550000,237,0.00000000000000000000,0.000000,0.000000,1.000000,0.000000,NULL,0.000000,0,0,0,0,0,0.00000000000000000000,0.00000000000000000000,0.00000000000000000000,0.00000000000000000000,0,0,2,1,1,NULL,NULL,fall,2025-10-07 20:30:49.843,feature_mart,snap_20250905,2025-08-01 17:00:00,0,1,iOS applications channel,train_split_v1,commit_0001
8nXiWqsu,2025-09-05,0.000000,0,0.000000,0,0.000000,0,28.550000,237,0.00000000000000000000,0.000000,0.000000,1.000000,0.000000,NULL,0.000000,0,0,0,0,0,0.00000000000000000000,0.00000000000000000000,0.00000000000000000000,0.00000000000000000000,0,0,2,2,2,NULL,NULL,fall,2025-10-07 20:30:49.843,feature_mart,snap_20250905,2025-08-01 17:00:00,0,1,iOS applications channel,train_split_v1,commit_0001
8QwGt2k1,2025-09-05,0.000000,0,0.000000,0,37.870000,1,26.615000,70,0.00000000000000000000,0.000000,0.000000,0.500000,0.500000,NULL,0.000000,0,0,0,0,0,0.00000000000000000000,0.00000000000000000000,0.00000000000000000000,0.00000000000000000000,0,0,4,4,5,NULL,NULL,fall,2025-10-07 20:30:49.843,feature_mart,snap_20250905,2025-06-25 05:50:13,1,1,Android applications channel,train_split_v1,commit_0001
8QwGt2k1,2025-09-05,0.000000,0,0.000000,0,37.870000,1,26.615000,70,0.00000000000000000000,0.000000,0.000000,0.500000,0.500000,NULL,0.000000,0,0,0,0,0,0.00000000000000000000,0.00000000000000000000,0.00000000000000000000,0.00000000000000000000,0,0,4,5,5,NULL,NULL,fall,2025-10-07 20:30:49.843,feature_mart,snap_20250905,2025-06-25 05:50:13,1,1,Android applications channel,train_split_v1,commit_0001
8rGIFCfM,2025-09-05,0.000000,0,0.000000,0,0.000000,0,0.000000,365,0.00000000000000000000,0.000000,0.000000,0.000000,0.000000,NULL,0.000000,0,0,0,0,0,0.00000000000000000000,0.00000000000000000000,0.00000000000000000000,0.00000000000000000000,0,0,1,2,2,NULL,NULL,fall,2025-10-07 20:30:49.843,feature_mart,snap_20250905,2025-02-16 18:00:00,0,1,Android applications channel,train_split_v1,commit_0001
8UjwtvDY,2025-09-05,0.000000,0,0.000000,0,0.000000,0,25.390000,222,0.00000000000000000000,0.000000,0.000000,1.000000,0.000000,NULL,0.000000,0,0,0,0,0,0.00000000000000000000,0.00000000000000000000,0.00000000000000000000,0.00000000000000000000,0,0,3,1,1,NULL,NULL,fall,2025-10-07 20:30:49.843,feature_mart,snap_20250905,2025-01-24 09:15:24,1,1,Email channel,train_split_v1,commit_0001
8UjwtvDY,2025-09-05,0.000000,0,0.000000,0,0.000000,0,25.390000,222,0.00000000000000000000,0.000000,0.000000,1.000000,0.000000,NULL,0.000000,0,0,0,0,0,0.00000000000000000000,0.00000000000000000000,0.00000000000000000000,0.00000000000000000000,0,0,3,2,2,NULL,NULL,fall,2025-10-07 20:30:49.843,feature_mart,snap_20250905,2025-01-24 09:15:24,1,1,Email channel,train_split_v1,commit_0001
8vaWQy2V,2025-09-05,0.000000,0,0.000000,0,0.000000,0,24.470000,206,0.00000000000000000000,0.000000,0.000000,0.500000,0.500000,NULL,0.000000,0,0,0,0,0,0.00000000000000000000,0.00000000000000000000,0.00000000000000000000,0.00000000000000000000,0,0,3,1,1,NULL,NULL,fall,2025-10-07 20:30:49.843,feature_mart,snap_20250905,2024-09-21 13:00:00,0,1,Android applications channel,train_split_v1,commit_0001
8vaWQy2V,2025-09-05,0.000000,0,0.000000,0,0.000000,0,24.470000,206,0.00000000000000000000,0.000000,0.000000,0.500000,0.500000,NULL,0.000000,0,0,0,0,0,0.00000000000000000000,0.00000000000000000000,0.00000000000000000000,0.00000000000000000000,0,0,3,2,2,NULL,NULL,fall,2025-10-07 20:30:49.843,feature_mart,snap_20250905,2024-09-21 13:00:00,0,1,Android applications channel,train_split_v1,commit_0001
8vx0d0o2,2025-09-05,0.000000,0,0.000000,0,0.000000,0,41.520000,175,0.00000000000000000000,0.000000,0.500000,0.500000,0.000000,NULL,0.000000,0,0,0,0,0,0.00000000000000000000,0.00000000000000000000,0.00000000000000000000,0.00000000000000000000,0,0,3,1,1,NULL,NULL,fall,2025-10-07 20:30:49.843,feature_mart,snap_20250905,2025-02-03 12:00:00,0,1,Android applications channel,train_split_v1,commit_0001
8vx0d0o2,2025-09-05,0.000000,0,0.000000,0,0.000000,0,41.520000,175,0.00000000000000000000,0.000000,0.500000,0.500000,0.000000,NULL,0.000000,0,0,0,0,0,0.00000000000000000000,0.00000000000000000000,0.00000000000000000000,0.00000000000000000000,0,0,3,2,2,NULL,NULL,fall,2025-10-07 20:30:49.843,feature_mart,snap_20250905,2025-02-03 12:00:00,0,1,Android applications channel,train_split_v1,commit_0001
8WCl8knZ,2025-09-05,0.000000,0,0.000000,0,0.000000,0,54.540000,198,0.00000000000000000000,0.000000,0.000000,1.000000,0.000000,NULL,0.000000,0,0,0,0,0,0.00000000000000000000,0.00000000000000000000,0.00000000000000000000,0.00000000000000000000,0,0,3,1,1,NULL,NULL,fall,2025-10-07 20:30:49.843,feature_mart,snap_20250905,2025-02-19 06:58:41,1,1,Email channel,train_split_v1,commit_0001
8WCl8knZ,2025-09-05,0.000000,0,0.000000,0,0.000000,0,54.540000,198,0.00000000000000000000,0.000000,0.000000,1.000000,0.000000,NULL,0.000000,0,0,0,0,0,0.00000000000000000000,0.00000000000000000000,0.00000000000000000000,0.00000000000000000000,0,0,3,2,2,NULL,NULL,fall,2025-10-07 20:30:49.843,feature_mart,snap_20250905,2025-02-19 06:58:41,1,1,Email channel,train_split_v1,commit_0001
8wcoWFoe,2025-09-05,0.000000,0,13.890000,1,17.170000,2,17.170000,22,0.50000000000000000000,0.000000,0.000000,0.000000,0.000000,NULL,0.000000,0,0,0,0,0,0.00000000000000000000,0.00000000000000000000,0.00000000000000000000,0.00000000000000000000,0,0,5,5,4,NULL,NULL,fall,2025-10-07 20:30:49.843,feature_mart,snap_20250905,2025-08-12 10:42:50,1,1,Email channel,train_split_v1,commit_0001
8woPeX9P,2025-09-05,0.000000,0,0.000000,0,0.000000,0,27.120000,195,0.00000000000000000000,0.000000,0.333333,0.333333,0.000000,NULL,0.000000,0,0,0,0,0,0.00000000000000000000,0.00000000000000000000,0.00000000000000000000,0.00000000000000000000,0,0,3,1,1,NULL,NULL,fall,2025-10-07 20:30:49.843,feature_mart,snap_20250905,2025-02-21 11:24:02,1,1,Android applications channel,train_split_v1,commit_0001
8woPeX9P,2025-09-05,0.000000,0,0.000000,0,0.000000,0,27.120000,195,0.00000000000000000000,0.000000,0.333333,0.333333,0.000000,NULL,0.000000,0,0,0,0,0,0.00000000000000000000,0.00000000000000000000,0.00000000000000000000,0.00000000000000000000,0,0,3,2,2,NULL,NULL,fall,2025-10-07 20:30:49.843,feature_mart,snap_20250905,2025-02-21 11:24:02,1,1,Android applications channel,train_split_v1,commit_0001
8WpRtoZm,2025-09-05,0.000000,0,0.000000,0,0.000000,0,0.000000,365,0.00000000000000000000,0.000000,0.000000,0.000000,0.000000,NULL,0.000000,0,0,0,0,0,0.00000000000000000000,0.00000000000000000000,0.00000000000000000000,0.00000000000000000000,0,0,1,2,2,NULL,NULL,fall,2025-10-07 20:30:49.843,feature_mart,snap_20250905,2025-05-17 18:00:00,0,1,iOS applications channel,train_split_v1,commit_0001
8xWjmMGz,2025-09-05,0.000000,0,0.000000,0,28.470000,1,25.990000,58,1.00000000000000000000,0.000000,0.000000,0.500000,0.500000,NULL,0.000000,0,0,0,0,0,0.00000000000000000000,0.00000000000000000000,0.00000000000000000000,0.00000000000000000000,0,0,4,4,5,NULL,NULL,fall,2025-10-07 20:30:49.843,feature_mart,snap_20250905,2025-04-07 16:59:07,1,1,iOS applications channel,train_split_v1,commit_0001
8xWjmMGz,2025-09-05,0.000000,0,0.000000,0,28.470000,1,25.990000,58,1.00000000000000000000,0.000000,0.000000,0.500000,0.500000,NULL,0.000000,0,0,0,0,0,0.00000000000000000000,0.00000000000000000000,0.00000000000000000000,0.00000000000000000000,0,0,4,5,5,NULL,NULL,fall,2025-10-07 20:30:49.843,feature_mart,snap_20250905,2025-04-07 16:59:07,1,1,iOS applications channel,train_split_v1,commit_0001
93ELJwwk,2025-09-05,0.000000,0,0.000000,0,0.000000,0,0.000000,365,0.00000000000000000000,0.000000,0.000000,0.000000,0.000000,NULL,0.000000,0,0,0,0,0,0.00000000000000000000,0.00000000000000000000,0.00000000000000000000,0.00000000000000000000,0,0,1,2,2,NULL,NULL,fall,2025-10-07 20:30:49.843,feature_mart,snap_20250905,2025-07-18 14:00:00,0,1,Email channel,train_split_v1,commit_0001
98g7gKXg,2025-09-05,0.000000,0,0.000000,0,0.000000,0,0.000000,365,0.00000000000000000000,0.000000,0.000000,0.000000,0.000000,NULL,0.000000,0,0,0,0,0,0.00000000000000000000,0.00000000000000000000,0.00000000000000000000,0.00000000000000000000,0,0,1,2,2,NULL,NULL,fall,2025-10-07 20:30:49.843,feature_mart,snap_20250905,2025-04-10 19:00:00,0,1,Email channel,train_split_v1,commit_0001
9djTrfc6,2025-09-05,0.000000,0,0.000000,0,18.780000,1,23.857500,90,1.00000000000000000000,0.000000,0.000000,0.500000,0.250000,NULL,0.000000,0,0,0,0,0,0.00000000000000000000,0.00000000000000000000,0.00000000000000000000,0.00000000000000000000,0,0,4,4,4,NULL,NULL,fall,2025-10-07 20:30:49.843,feature_mart,snap_20250905,2025-06-05 07:02:16,1,1,iOS applications channel,train_split_v1,commit_0001
9djTrfc6,2025-09-05,0.000000,0,0.000000,0,18.780000,1,23.857500,90,1.00000000000000000000,0.000000,0.000000,0.500000,0.250000,NULL,0.000000,0,0,0,0,0,0.00000000000000000000,0.00000000000000000000,0.00000000000000000000,0.00000000000000000000,0,0,4,5,4,NULL,NULL,fall,2025-10-07 20:30:49.843,feature_mart,snap_20250905,2025-06-05 07:02:16,1,1,iOS applications channel,train_split_v1,commit_0001
9Dr1yS2E,2025-09-05,0.000000,0,0.000000,0,0.000000,0,0.000000,365,0.00000000000000000000,0.000000,0.000000,0.000000,0.000000,NULL,0.000000,0,0,0,0,0,0.00000000000000000000,0.00000000000000000000,0.00000000000000000000,0.00000000000000000000,0,0,1,2,2,NULL,NULL,fall,2025-10-07 20:30:49.843,feature_mart,snap_20250905,2025-01-21 13:00:00,0,1,Email channel,train_split_v1,commit_0001
9iBG63d1,2025-09-05,0.000000,0,0.000000,0,0.000000,0,0.000000,365,0.00000000000000000000,0.000000,0.000000,0.000000,0.000000,NULL,0.000000,0,0,0,0,0,0.00000000000000000000,0.00000000000000000000,0.00000000000000000000,0.00000000000000000000,0,0,1,2,2,NULL,NULL,fall,2025-10-07 20:30:49.843,feature_mart,snap_20250905,2025-05-17 11:00:00,0,1,Android applications channel,train_split_v1,commit_0001
9JS47NYw,2025-09-05,0.000000,0,0.000000,0,0.000000,0,24.350000,207,0.00000000000000000000,0.000000,0.000000,1.000000,0.000000,NULL,0.000000,0,0,0,0,0,0.00000000000000000000,0.00000000000000000000,0.00000000000000000000,0.00000000000000000000,0,0,3,1,1,NULL,NULL,fall,2025-10-07 20:30:49.843,feature_mart,snap_20250905,2025-05-15 09:00:00,0,1,Email channel,train_split_v1,commit_0001
9JS47NYw,2025-09-05,0.000000,0,0.000000,0,0.000000,0,24.350000,207,0.00000000000000000000,0.000000,0.000000,1.000000,0.000000,NULL,0.000000,0,0,0,0,0,0.00000000000000000000,0.00000000000000000000,0.00000000000000000000,0.00000000000000000000,0,0,3,2,2,NULL,NULL,fall,2025-10-07 20:30:49.843,feature_mart,snap_20250905,2025-05-15 09:00:00,0,1,Email channel,train_split_v1,commit_0001
9PrNZ6IX,2025-09-05,0.000000,0,0.000000,0,0.000000,0,0.000000,365,0.00000000000000000000,0.000000,0.000000,0.000000,0.000000,NULL,0.000000,0,0,0,0,0,0.00000000000000000000,0.00000000000000000000,0.00000000000000000000,0.00000000000000000000,0,0,1,2,2,NULL,NULL,fall,2025-10-07 20:30:49.843,feature_mart,snap_20250905,2025-03-21 21:00:00,0,1,Android applications channel,train_split_v1,commit_0001
9PSQziMT,2025-09-05,0.000000,0,0.000000,0,36.150000,1,32.740000,87,0.00000000000000000000,0.000000,0.500000,0.000000,0.000000,NULL,0.000000,0,0,0,0,0,0.00000000000000000000,0.00000000000000000000,0.00000000000000000000,0.00000000000000000000,0,0,4,4,5,NULL,NULL,fall,2025-10-07 20:30:49.843,feature_mart,snap_20250905,2024-12-25 12:00:00,0,1,iOS applications channel,train_split_v1,commit_0001
9PSQziMT,2025-09-05,0.000000,0,0.000000,0,36.150000,1,32.740000,87,0.00000000000000000000,0.000000,0.500000,0.000000,0.000000,NULL,0.000000,0,0,0,0,0,0.00000000000000000000,0.00000000000000000000,0.00000000000000000000,0.00000000000000000000,0,0,4,5,5,NULL,NULL,fall,2025-10-07 20:30:49.843,feature_mart,snap_20250905,2024-12-25 12:00:00,0,1,iOS applications channel,train_split_v1,commit_0001
9PYXLKoU,2025-09-05,0.000000,0,0.000000,0,0.000000,0,38.980000,124,0.00000000000000000000,0.000000,0.000000,0.500000,0.500000,NULL,0.000000,0,0,0,0,0,0.00000000000000000000,0.00000000000000000000,0.00000000000000000000,0.00000000000000000000,0,0,4,1,1,NULL,NULL,fall,2025-10-07 20:30:49.843,feature_mart,snap_20250905,2024-10-20 12:00:00,0,1,Email channel,train_split_v1,commit_0001
9PYXLKoU,2025-09-05,0.000000,0,0.000000,0,0.000000,0,38.980000,124,0.00000000000000000000,0.000000,0.000000,0.500000,0.500000,NULL,0.000000,0,0,0,0,0,0.00000000000000000000,0.00000000000000000000,0.00000000000000000000,0.00000000000000000000,0,0,4,2,2,NULL,NULL,fall,2025-10-07 20:30:49.843,feature_mart,snap_20250905,2024-10-20 12:00:00,0,1,Email channel,train_split_v1,commit_0001
9Tfw7CPq,2025-09-05,0.000000,0,0.000000,0,0.000000,0,0.000000,365,0.00000000000000000000,0.000000,0.000000,0.000000,0.000000,NULL,0.000000,0,0,0,0,0,0.00000000000000000000,0.00000000000000000000,0.00000000000000000000,0.00000000000000000000,0,0,1,2,2,NULL,NULL,fall,2025-10-07 20:30:49.843,feature_mart,snap_20250905,2025-04-23 14:00:00,0,1,iOS applications channel,train_split_v1,commit_0001
9ukZ8ND1,2025-09-05,0.000000,0,0.000000,0,0.000000,0,43.920000,152,0.00000000000000000000,0.000000,0.000000,1.000000,0.000000,NULL,0.000000,0,0,0,0,0,0.00000000000000000000,0.00000000000000000000,0.00000000000000000000,0.00000000000000000000,0,0,3,1,1,NULL,NULL,fall,2025-10-07 20:30:49.843,feature_mart,snap_20250905,2024-09-24 18:00:00,0,1,Email channel,train_split_v1,commit_0001
9ukZ8ND1,2025-09-05,0.000000,0,0.000000,0,0.000000,0,43.920000,152,0.00000000000000000000,0.000000,0.000000,1.000000,0.000000,NULL,0.000000,0,0,0,0,0,0.00000000000000000000,0.00000000000000000000,0.00000000000000000000,0.00000000000000000000,0,0,3,2,2,NULL,NULL,fall,2025-10-07 20:30:49.843,feature_mart,snap_20250905,2024-09-24 18:00:00,0,1,Email channel,train_split_v1,commit_0001
9Wv9YBga,2025-09-05,0.000000,0,0.000000,0,0.000000,0,0.000000,365,0.00000000000000000000,0.000000,0.000000,0.000000,0.000000,NULL,0.000000,0,0,0,0,0,0.00000000000000000000,0.00000000000000000000,0.00000000000000000000,0.00000000000000000000,0,0,1,2,2,NULL,NULL,fall,2025-10-07 20:30:49.843,feature_mart,snap_20250905,2024-12-04 20:00:00,0,1,Android applications channel,train_split_v1,commit_0001
9XebLeaq,2025-09-05,0.000000,0,0.000000,0,27.480000,1,26.947500,81,0.00000000000000000000,0.000000,0.000000,0.500000,0.000000,NULL,0.000000,0,0,0,0,0,0.00000000000000000000,0.00000000000000000000,0.00000000000000000000,0.00000000000000000000,0,0,4,4,5,NULL,NULL,fall,2025-10-07 20:30:49.843,feature_mart,snap_20250905,2025-06-15 03:13:52,1,1,Email channel,train_split_v1,commit_0001
9XebLeaq,2025-09-05,0.000000,0,0.000000,0,27.480000,1,26.947500,81,0.00000000000000000000,0.000000,0.000000,0.500000,0.000000,NULL,0.000000,0,0,0,0,0,0.00000000000000000000,0.00000000000000000000,0.00000000000000000000,0.00000000000000000000,0,0,4,5,5,NULL,NULL,fall,2025-10-07 20:30:49.843,feature_mart,snap_20250905,2025-06-15 03:13:52,1,1,Email channel,train_split_v1,commit_0001
9zDKpSot,2025-09-05,0.000000,0,0.000000,0,0.000000,0,29.107500,191,0.00000000000000000000,0.000000,0.250000,0.250000,0.250000,NULL,0.000000,0,0,0,0,0,0.00000000000000000000,0.00000000000000000000,0.00000000000000000000,0.00000000000000000000,0,0,3,1,1,NULL,NULL,fall,2025-10-07 20:30:49.843,feature_mart,snap_20250905,2024-11-10 11:27:05,1,1,Email channel,train_split_v1,commit_0001
9zDKpSot,2025-09-05,0.000000,0,0.000000,0,0.000000,0,29.107500,191,0.00000000000000000000,0.000000,0.250000,0.250000,0.250000,NULL,0.000000,0,0,0,0,0,0.00000000000000000000,0.00000000000000000000,0.00000000000000000000,0.00000000000000000000,0,0,3,2,2,NULL,NULL,fall,2025-10-07 20:30:49.843,feature_mart,snap_20250905,2024-11-10 11:27:05,1,1,Email channel,train_split_v1,commit_0001
9ZYE51mx,2025-09-05,0.000000,0,0.000000,0,0.000000,0,0.000000,365,0.00000000000000000000,0.000000,0.000000,0.000000,0.000000,NULL,0.000000,0,0,0,0,0,0.00000000000000000000,0.00000000000000000000,0.00000000000000000000,0.00000000000000000000,0,0,1,2,2,NULL,NULL,fall,2025-10-07 20:30:49.843,feature_mart,snap_20250905,2025-04-19 20:00:00,0,1,iOS applications channel,train_split_v1,commit_0001
a2gBi4qU,2025-09-05,0.000000,0,0.000000,0,0.000000,0,0.000000,365,0.00000000000000000000,0.000000,0.000000,0.000000,0.000000,NULL,0.000000,0,0,0,0,0,0.00000000000000000000,0.00000000000000000000,0.00000000000000000000,0.00000000000000000000,0,0,1,2,2,NULL,NULL,fall,2025-10-07 20:30:49.843,feature_mart,snap_20250905,2025-01-17 21:00:00,0,1,Android applications channel,train_split_v1,commit_0001
a5W3X4gX,2025-09-05,28.810000,1,28.810000,1,28.810000,1,26.070000,4,0.00000000000000000000,0.000000,0.000000,0.000000,0.500000,NULL,0.000000,0,0,0,0,0,0.00000000000000000000,0.00000000000000000000,0.00000000000000000000,0.00000000000000000000,0,0,5,4,5,NULL,NULL,fall,2025-10-07 20:30:49.843,feature_mart,snap_20250905,2024-11-05 14:00:00,0,1,Email channel,train_split_v1,commit_0001
a5W3X4gX,2025-09-05,28.810000,1,28.810000,1,28.810000,1,26.070000,4,0.00000000000000000000,0.000000,0.000000,0.000000,0.500000,NULL,0.000000,0,0,0,0,0,0.00000000000000000000,0.00000000000000000000,0.00000000000000000000,0.00000000000000000000,0,0,5,5,5,NULL,NULL,fall,2025-10-07 20:30:49.843,feature_mart,snap_20250905,2024-11-05 14:00:00,0,1,Email channel,train_split_v1,commit_0001
ac23apcE,2025-09-05,0.000000,0,0.000000,0,0.000000,0,38.840000,174,0.00000000000000000000,0.000000,1.000000,0.000000,0.000000,NULL,0.000000,0,0,0,0,0,0.00000000000000000000,0.00000000000000000000,0.00000000000000000000,0.00000000000000000000,0,0,3,1,1,NULL,NULL,fall,2025-10-07 20:30:49.843,feature_mart,snap_20250905,2025-03-05 20:00:00,0,1,Android applications channel,train_split_v1,commit_0001
ac23apcE,2025-09-05,0.000000,0,0.000000,0,0.000000,0,38.840000,174,0.00000000000000000000,0.000000,1.000000,0.000000,0.000000,NULL,0.000000,0,0,0,0,0,0.00000000000000000000,0.00000000000000000000,0.00000000000000000000,0.00000000000000000000,0,0,3,2,2,NULL,NULL,fall,2025-10-07 20:30:49.843,feature_mart,snap_20250905,2025-03-05 20:00:00,0,1,Android applications channel,train_split_v1,commit_0001
aDNKgeIn,2025-09-05,43.460000,1,43.460000,1,39.505000,2,32.792500,1,0.00000000000000000000,4.900000,0.000000,0.000000,0.750000,NULL,0.000000,0,0,0,0,0,0.00000000000000000000,0.00000000000000000000,0.00000000000000000000,0.00000000000000000000,0,0,5,5,5,NULL,NULL,fall,2025-10-07 20:30:49.843,feature_mart,snap_20250905,2025-07-27 14:00:00,0,1,Android applications channel,train_split_v1,commit_0001
AFEn3z5d,2025-09-05,0.000000,0,0.000000,0,0.000000,0,29.540000,158,0.00000000000000000000,0.000000,0.000000,0.666666,0.000000,NULL,0.000000,0,0,0,0,0,0.00000000000000000000,0.00000000000000000000,0.00000000000000000000,0.00000000000000000000,0,0,3,1,1,NULL,NULL,fall,2025-10-07 20:30:49.843,feature_mart,snap_20250905,2024-12-22 06:49:47,1,1,Email channel,train_split_v1,commit_0001
AFEn3z5d,2025-09-05,0.000000,0,0.000000,0,0.000000,0,29.540000,158,0.00000000000000000000,0.000000,0.000000,0.666666,0.000000,NULL,0.000000,0,0,0,0,0,0.00000000000000000000,0.00000000000000000000,0.00000000000000000000,0.00000000000000000000,0,0,3,2,2,NULL,NULL,fall,2025-10-07 20:30:49.843,feature_mart,snap_20250905,2024-12-22 06:49:47,1,1,Email channel,train_split_v1,commit_0001
AhIw9XnC,2025-09-05,0.000000,0,0.000000,0,0.000000,0,0.000000,365,0.00000000000000000000,0.000000,0.000000,0.000000,0.000000,NULL,0.000000,0,0,0,0,0,0.00000000000000000000,0.00000000000000000000,0.00000000000000000000,0.00000000000000000000,0,0,1,2,2,NULL,NULL,fall,2025-10-07 20:30:49.843,feature_mart,snap_20250905,2025-02-26 17:00:00,0,1,Email channel,train_split_v1,commit_0001
AjASnAGX,2025-09-05,0.000000,0,0.000000,0,0.000000,0,36.560000,263,0.00000000000000000000,0.000000,0.000000,1.000000,0.000000,NULL,0.000000,0,0,0,0,0,0.00000000000000000000,0.00000000000000000000,0.00000000000000000000,0.00000000000000000000,0,0,2,1,1,NULL,NULL,fall,2025-10-07 20:30:49.843,feature_mart,snap_20250905,2025-06-03 13:00:00,0,1,iOS applications channel,train_split_v1,commit_0001
AjASnAGX,2025-09-05,0.000000,0,0.000000,0,0.000000,0,36.560000,263,0.00000000000000000000,0.000000,0.000000,1.000000,0.000000,NULL,0.000000,0,0,0,0,0,0.00000000000000000000,0.00000000000000000000,0.00000000000000000000,0.00000000000000000000,0,0,2,2,2,NULL,NULL,fall,2025-10-07 20:30:49.843,feature_mart,snap_20250905,2025-06-03 13:00:00,0,1,iOS applications channel,train_split_v1,commit_0001
AJYJElxJ,2025-09-05,0.000000,0,44.900000,1,44.900000,1,34.315000,24,0.00000000000000000000,0.000000,0.000000,0.500000,0.000000,NULL,0.000000,3,1,0,2,3,0.33333333333333333333,0.00000000000000000000,0.66666666666666666666,0.00000000000000000000,0,0,5,4,5,NULL,NULL,fall,2025-10-07 20:30:49.843,feature_mart,snap_20250905,2025-09-04 16:00:00,0,1,Email channel,train_split_v1,commit_0001
AJYJElxJ,2025-09-05,0.000000,0,44.900000,1,44.900000,1,34.315000,24,0.00000000000000000000,0.000000,0.000000,0.500000,0.000000,NULL,0.000000,3,1,0,2,3,0.33333333333333333333,0.00000000000000000000,0.66666666666666666666,0.00000000000000000000,0,0,5,5,5,NULL,NULL,fall,2025-10-07 20:30:49.843,feature_mart,snap_20250905,2025-09-04 16:00:00,0,1,Email channel,train_split_v1,commit_0001
AmP4ZHpO,2025-09-05,0.000000,0,0.000000,0,0.000000,0,0.000000,365,0.00000000000000000000,0.000000,0.000000,0.000000,0.000000,NULL,0.000000,0,0,0,0,0,0.00000000000000000000,0.00000000000000000000,0.00000000000000000000,0.00000000000000000000,0,0,1,2,2,NULL,NULL,fall,2025-10-07 20:30:49.843,feature_mart,snap_20250905,2024-12-23 11:00:00,0,1,Email channel,train_split_v1,commit_0001
AP744EEP,2025-09-05,0.000000,0,0.000000,0,0.000000,0,0.000000,365,0.00000000000000000000,0.000000,0.000000,0.000000,0.000000,NULL,0.000000,0,0,0,0,0,0.00000000000000000000,0.00000000000000000000,0.00000000000000000000,0.00000000000000000000,0,0,1,2,2,NULL,NULL,fall,2025-10-07 20:30:49.843,feature_mart,snap_20250905,2025-07-08 08:00:00,0,1,iOS applications channel,train_split_v1,commit_0001
aQ3IDAdm,2025-09-05,0.000000,0,0.000000,0,0.000000,0,20.680000,116,0.00000000000000000000,0.000000,0.000000,1.000000,0.000000,NULL,0.000000,0,0,0,0,0,0.00000000000000000000,0.00000000000000000000,0.00000000000000000000,0.00000000000000000000,0,0,4,1,1,NULL,NULL,fall,2025-10-07 20:30:49.843,feature_mart,snap_20250905,2025-03-14 07:16:04,1,1,iOS applications channel,train_split_v1,commit_0001
aQ3IDAdm,2025-09-05,0.000000,0,0.000000,0,0.000000,0,20.680000,116,0.00000000000000000000,0.000000,0.000000,1.000000,0.000000,NULL,0.000000,0,0,0,0,0,0.00000000000000000000,0.00000000000000000000,0.00000000000000000000,0.00000000000000000000,0,0,4,2,2,NULL,NULL,fall,2025-10-07 20:30:49.843,feature_mart,snap_20250905,2025-03-14 07:16:04,1,1,iOS applications channel,train_split_v1,commit_0001
ar2jiIqZ,2025-09-05,0.000000,0,0.000000,0,0.000000,0,0.000000,365,0.00000000000000000000,0.000000,0.000000,0.000000,0.000000,NULL,0.000000,0,0,0,0,0,0.00000000000000000000,0.00000000000000000000,0.00000000000000000000,0.00000000000000000000,0,0,1,2,2,NULL,NULL,fall,2025-10-07 20:30:49.843,feature_mart,snap_20250905,2025-01-17 16:00:00,0,1,Android applications channel,train_split_v1,commit_0001
aTnnrWTZ,2025-09-05,0.000000,0,0.000000,0,36.250000,1,34.653333,59,0.00000000000000000000,0.000000,0.333333,0.333333,0.000000,NULL,0.000000,0,0,0,0,0,0.00000000000000000000,0.00000000000000000000,0.00000000000000000000,0.00000000000000000000,0,0,4,4,5,NULL,NULL,fall,2025-10-07 20:30:49.843,feature_mart,snap_20250905,2025-07-06 11:36:07,1,1,Android applications channel,train_split_v1,commit_0001
aTnnrWTZ,2025-09-05,0.000000,0,0.000000,0,36.250000,1,34.653333,59,0.00000000000000000000,0.000000,0.333333,0.333333,0.000000,NULL,0.000000,0,0,0,0,0,0.00000000000000000000,0.00000000000000000000,0.00000000000000000000,0.00000000000000000000,0,0,4,5,5,NULL,NULL,fall,2025-10-07 20:30:49.843,feature_mart,snap_20250905,2025-07-06 11:36:07,1,1,Android applications channel,train_split_v1,commit_0001
AUguBuQq,2025-09-05,0.000000,0,0.000000,0,0.000000,0,0.000000,365,0.00000000000000000000,0.000000,0.000000,0.000000,0.000000,NULL,0.000000,0,0,0,0,0,0.00000000000000000000,0.00000000000000000000,0.00000000000000000000,0.00000000000000000000,0,0,1,2,2,NULL,NULL,fall,2025-10-07 20:30:49.843,feature_mart,snap_20250905,2024-10-08 12:00:00,0,1,Android applications channel,train_split_v1,commit_0001
ax7uiy31,2025-09-05,0.000000,0,0.000000,0,0.000000,0,0.000000,365,0.00000000000000000000,0.000000,0.000000,0.000000,0.000000,NULL,0.000000,0,0,0,0,0,0.00000000000000000000,0.00000000000000000000,0.00000000000000000000,0.00000000000000000000,0,0,1,2,2,NULL,NULL,fall,2025-10-07 20:30:49.843,feature_mart,snap_20250905,2024-12-23 14:00:00,0,1,Email channel,train_split_v1,commit_0001
AyCOzBub,2025-09-05,0.000000,0,0.000000,0,0.000000,0,0.000000,365,0.00000000000000000000,0.000000,0.000000,0.000000,0.000000,NULL,0.000000,0,0,0,0,0,0.00000000000000000000,0.00000000000000000000,0.00000000000000000000,0.00000000000000000000,0,0,1,2,2,NULL,NULL,fall,2025-10-07 20:30:49.843,feature_mart,snap_20250905,2024-11-15 16:00:00,0,1,Android applications channel,train_split_v1,commit_0001
aYSNLHYA,2025-09-05,0.000000,0,0.000000,0,0.000000,0,0.000000,365,0.00000000000000000000,0.000000,0.000000,0.000000,0.000000,NULL,0.000000,0,0,0,0,0,0.00000000000000000000,0.00000000000000000000,0.00000000000000000000,0.00000000000000000000,0,0,1,2,2,NULL,NULL,fall,2025-10-07 20:30:49.843,feature_mart,snap_20250905,2024-09-23 20:00:00,0,1,Android applications channel,train_split_v1,commit_0001
AZvUhERE,2025-09-05,0.000000,0,0.000000,0,17.560000,1,25.487500,66,0.00000000000000000000,0.000000,0.250000,0.500000,0.250000,NULL,0.000000,0,0,0,0,0,0.00000000000000000000,0.00000000000000000000,0.00000000000000000000,0.00000000000000000000,0,0,4,4,4,NULL,NULL,fall,2025-10-07 20:30:49.843,feature_mart,snap_20250905,2025-06-29 08:18:42,1,1,iOS applications channel,train_split_v1,commit_0001
AZvUhERE,2025-09-05,0.000000,0,0.000000,0,17.560000,1,25.487500,66,0.00000000000000000000,0.000000,0.250000,0.500000,0.250000,NULL,0.000000,0,0,0,0,0,0.00000000000000000000,0.00000000000000000000,0.00000000000000000000,0.00000000000000000000,0,0,4,5,4,NULL,NULL,fall,2025-10-07 20:30:49.843,feature_mart,snap_20250905,2025-06-29 08:18:42,1,1,iOS applications channel,train_split_v1,commit_0001
B16JC5kV,2025-09-05,0.000000,0,0.000000,0,0.000000,0,0.000000,365,0.00000000000000000000,0.000000,0.000000,0.000000,0.000000,NULL,0.000000,0,0,0,0,0,0.00000000000000000000,0.00000000000000000000,0.00000000000000000000,0.00000000000000000000,0,0,1,2,2,NULL,NULL,fall,2025-10-07 20:30:49.843,feature_mart,snap_20250905,2025-07-09 12:00:00,0,1,iOS applications channel,train_split_v1,commit_0001
b1QzraK3,2025-09-05,0.000000,0,0.000000,0,0.000000,0,0.000000,365,0.00000000000000000000,0.000000,0.000000,0.000000,0.000000,NULL,0.000000,0,0,0,0,0,0.00000000000000000000,0.00000000000000000000,0.00000000000000000000,0.00000000000000000000,0,0,1,2,2,NULL,NULL,fall,2025-10-07 20:30:49.843,feature_mart,snap_20250905,2025-02-28 14:00:00,0,1,Email channel,train_split_v1,commit_0001
b4UUQ0s8,2025-09-05,0.000000,0,0.000000,0,0.000000,0,25.830000,151,0.00000000000000000000,0.000000,0.000000,1.000000,0.000000,NULL,0.000000,0,0,0,0,0,0.00000000000000000000,0.00000000000000000000,0.00000000000000000000,0.00000000000000000000,0,0,3,1,1,NULL,NULL,fall,2025-10-07 20:30:49.843,feature_mart,snap_20250905,2025-04-05 05:56:12,1,1,Android applications channel,train_split_v1,commit_0001
b4UUQ0s8,2025-09-05,0.000000,0,0.000000,0,0.000000,0,25.830000,151,0.00000000000000000000,0.000000,0.000000,1.000000,0.000000,NULL,0.000000,0,0,0,0,0,0.00000000000000000000,0.00000000000000000000,0.00000000000000000000,0.00000000000000000000,0,0,3,2,2,NULL,NULL,fall,2025-10-07 20:30:49.843,feature_mart,snap_20250905,2025-04-05 05:56:12,1,1,Android applications channel,train_split_v1,commit_0001
b5ZXrdZE,2025-09-05,0.000000,0,0.000000,0,0.000000,0,0.000000,365,0.00000000000000000000,0.000000,0.000000,0.000000,0.000000,NULL,0.000000,0,0,0,0,0,0.00000000000000000000,0.00000000000000000000,0.00000000000000000000,0.00000000000000000000,0,0,1,2,2,NULL,NULL,fall,2025-10-07 20:30:49.843,feature_mart,snap_20250905,2025-04-27 09:00:00,0,1,iOS applications channel,train_split_v1,commit_0001
b6H0XxGZ,2025-09-05,0.000000,0,0.000000,0,0.000000,0,0.000000,365,0.00000000000000000000,0.000000,0.000000,0.000000,0.000000,NULL,0.000000,0,0,0,0,0,0.00000000000000000000,0.00000000000000000000,0.00000000000000000000,0.00000000000000000000,0,0,1,2,2,NULL,NULL,fall,2025-10-07 20:30:49.843,feature_mart,snap_20250905,2025-06-11 18:00:00,0,1,Email channel,train_split_v1,commit_0001
b8UD8TnC,2025-09-05,0.000000,0,0.000000,0,0.000000,0,0.000000,365,0.00000000000000000000,0.000000,0.000000,0.000000,0.000000,NULL,0.000000,0,0,0,0,0,0.00000000000000000000,0.00000000000000000000,0.00000000000000000000,0.00000000000000000000,0,0,1,2,2,NULL,NULL,fall,2025-10-07 20:30:49.843,feature_mart,snap_20250905,2025-04-05 13:00:00,0,1,Email channel,train_split_v1,commit_0001
Be8Q6vNu,2025-09-05,0.000000,0,0.000000,0,0.000000,0,39.795000,232,0.00000000000000000000,0.000000,0.000000,0.500000,0.500000,NULL,0.000000,0,0,0,0,0,0.00000000000000000000,0.00000000000000000000,0.00000000000000000000,0.00000000000000000000,0,0,2,1,1,NULL,NULL,fall,2025-10-07 20:30:49.843,feature_mart,snap_20250905,2025-06-23 08:00:00,0,1,Email channel,train_split_v1,commit_0001
Be8Q6vNu,2025-09-05,0.000000,0,0.000000,0,0.000000,0,39.795000,232,0.00000000000000000000,0.000000,0.000000,0.500000,0.500000,NULL,0.000000,0,0,0,0,0,0.00000000000000000000,0.00000000000000000000,0.00000000000000000000,0.00000000000000000000,0,0,2,2,2,NULL,NULL,fall,2025-10-07 20:30:49.843,feature_mart,snap_20250905,2025-06-23 08:00:00,0,1,Email channel,train_split_v1,commit_0001
bF2ulFnw,2025-09-05,0.000000,0,0.000000,0,0.000000,0,0.000000,365,0.00000000000000000000,0.000000,0.000000,0.000000,0.000000,NULL,0.000000,0,0,0,0,0,0.00000000000000000000,0.00000000000000000000,0.00000000000000000000,0.00000000000000000000,0,0,1,2,2,NULL,NULL,fall,2025-10-07 20:30:49.843,feature_mart,snap_20250905,2024-09-12 20:00:00,0,1,Android applications channel,train_split_v1,commit_0001
Bfs0QOME,2025-09-05,0.000000,0,0.000000,0,29.470000,1,34.310000,69,0.00000000000000000000,0.000000,0.000000,0.000000,0.500000,NULL,0.000000,0,0,0,0,0,0.00000000000000000000,0.00000000000000000000,0.00000000000000000000,0.00000000000000000000,0,0,4,4,5,NULL,NULL,fall,2025-10-07 20:30:49.843,feature_mart,snap_20250905,2025-08-27 11:00:00,0,1,iOS applications channel,train_split_v1,commit_0001
Bfs0QOME,2025-09-05,0.000000,0,0.000000,0,29.470000,1,34.310000,69,0.00000000000000000000,0.000000,0.000000,0.000000,0.500000,NULL,0.000000,0,0,0,0,0,0.00000000000000000000,0.00000000000000000000,0.00000000000000000000,0.00000000000000000000,0,0,4,5,5,NULL,NULL,fall,2025-10-07 20:30:49.843,feature_mart,snap_20250905,2025-08-27 11:00:00,0,1,iOS applications channel,train_split_v1,commit_0001
bHEav6Nm,2025-09-05,0.000000,0,27.370000,2,27.370000,2,27.990000,23,0.00000000000000000000,0.000000,0.000000,0.666666,0.000000,NULL,0.000000,0,0,0,0,0,0.00000000000000000000,0.00000000000000000000,0.00000000000000000000,0.00000000000000000000,0,0,5,5,5,NULL,NULL,fall,2025-10-07 20:30:49.843,feature_mart,snap_20250905,2025-08-11 08:54:08,1,1,Email channel,train_split_v1,commit_0001
BkSCwCcU,2025-09-05,24.930000,1,24.930000,1,23.155000,2,21.216666,3,0.50000000000000000000,0.000000,0.000000,1.000000,0.000000,NULL,0.000000,0,0,0,0,0,0.00000000000000000000,0.00000000000000000000,0.00000000000000000000,0.00000000000000000000,0,0,5,5,4,NULL,NULL,fall,2025-10-07 20:30:49.843,feature_mart,snap_20250905,2025-07-22 06:31:17,1,1,Android applications channel,train_split_v1,commit_0001
blrSWt6v,2025-09-05,0.000000,0,0.000000,0,0.000000,0,36.370000,166,0.00000000000000000000,0.000000,0.000000,0.000000,1.000000,NULL,0.000000,0,0,0,0,0,0.00000000000000000000,0.00000000000000000000,0.00000000000000000000,0.00000000000000000000,0,0,3,1,1,NULL,NULL,fall,2025-10-07 20:30:49.843,feature_mart,snap_20250905,2025-03-22 13:50:07,1,1,Email channel,train_split_v1,commit_0001
blrSWt6v,2025-09-05,0.000000,0,0.000000,0,0.000000,0,36.370000,166,0.00000000000000000000,0.000000,0.000000,0.000000,1.000000,NULL,0.000000,0,0,0,0,0,0.00000000000000000000,0.00000000000000000000,0.00000000000000000000,0.00000000000000000000,0,0,3,2,2,NULL,NULL,fall,2025-10-07 20:30:49.843,feature_mart,snap_20250905,2025-03-22 13:50:07,1,1,Email channel,train_split_v1,commit_0001
BLzHfz3t,2025-09-05,0.000000,0,0.000000,0,0.000000,0,27.925000,279,0.00000000000000000000,0.000000,0.000000,1.000000,0.000000,NULL,0.000000,0,0,0,0,0,0.00000000000000000000,0.00000000000000000000,0.00000000000000000000,0.00000000000000000000,0,0,2,1,1,NULL,NULL,fall,2025-10-07 20:30:49.843,feature_mart,snap_20250905,2025-08-22 18:00:00,0,1,iOS applications channel,train_split_v1,commit_0001
BLzHfz3t,2025-09-05,0.000000,0,0.000000,0,0.000000,0,27.925000,279,0.00000000000000000000,0.000000,0.000000,1.000000,0.000000,NULL,0.000000,0,0,0,0,0,0.00000000000000000000,0.00000000000000000000,0.00000000000000000000,0.00000000000000000000,0,0,2,2,2,NULL,NULL,fall,2025-10-07 20:30:49.843,feature_mart,snap_20250905,2025-08-22 18:00:00,0,1,iOS applications channel,train_split_v1,commit_0001
BM0lIsug,2025-09-05,0.000000,0,0.000000,0,0.000000,0,17.890000,186,0.00000000000000000000,0.000000,0.000000,0.000000,0.000000,NULL,0.000000,0,0,0,0,0,0.00000000000000000000,0.00000000000000000000,0.00000000000000000000,0.00000000000000000000,0,0,3,1,1,NULL,NULL,fall,2025-10-07 20:30:49.843,feature_mart,snap_20250905,2025-01-30 09:57:52,1,1,Android applications channel,train_split_v1,commit_0001
BM0lIsug,2025-09-05,0.000000,0,0.000000,0,0.000000,0,17.890000,186,0.00000000000000000000,0.000000,0.000000,0.000000,0.000000,NULL,0.000000,0,0,0,0,0,0.00000000000000000000,0.00000000000000000000,0.00000000000000000000,0.00000000000000000000,0,0,3,2,2,NULL,NULL,fall,2025-10-07 20:30:49.843,feature_mart,snap_20250905,2025-01-30 09:57:52,1,1,Android applications channel,train_split_v1,commit_0001
BmS6i4Pt,2025-09-05,0.000000,0,21.860000,1,21.860000,1,29.055000,22,0.00000000000000000000,0.000000,0.000000,0.000000,0.000000,NULL,0.000000,0,0,0,0,0,0.00000000000000000000,0.00000000000000000000,0.00000000000000000000,0.00000000000000000000,0,0,5,4,4,NULL,NULL,fall,2025-10-07 20:30:49.843,feature_mart,snap_20250905,2024-11-09 08:00:00,0,1,Email channel,train_split_v1,commit_0001
BmS6i4Pt,2025-09-05,0.000000,0,21.860000,1,21.860000,1,29.055000,22,0.00000000000000000000,0.000000,0.000000,0.000000,0.000000,NULL,0.000000,0,0,0,0,0,0.00000000000000000000,0.00000000000000000000,0.00000000000000000000,0.00000000000000000000,0,0,5,5,4,NULL,NULL,fall,2025-10-07 20:30:49.843,feature_mart,snap_20250905,2024-11-09 08:00:00,0,1,Email channel,train_split_v1,commit_0001
BolZ9SHD,2025-09-05,0.000000,0,0.000000,0,0.000000,0,0.000000,365,0.00000000000000000000,0.000000,0.000000,0.000000,0.000000,NULL,0.000000,0,0,0,0,0,0.00000000000000000000,0.00000000000000000000,0.00000000000000000000,0.00000000000000000000,0,0,1,2,2,NULL,NULL,fall,2025-10-07 20:30:49.843,feature_mart,snap_20250905,2024-12-31 10:00:00,0,1,Email channel,train_split_v1,commit_0001
BwSeId75,2025-09-05,0.000000,0,0.000000,0,0.000000,0,38.380000,205,0.00000000000000000000,0.000000,0.000000,1.000000,0.000000,NULL,0.000000,0,0,0,0,0,0.00000000000000000000,0.00000000000000000000,0.00000000000000000000,0.00000000000000000000,0,0,3,1,1,NULL,NULL,fall,2025-10-07 20:30:49.843,feature_mart,snap_20250905,2025-02-12 09:05:26,1,1,Email channel,train_split_v1,commit_0001
BwSeId75,2025-09-05,0.000000,0,0.000000,0,0.000000,0,38.380000,205,0.00000000000000000000,0.000000,0.000000,1.000000,0.000000,NULL,0.000000,0,0,0,0,0,0.00000000000000000000,0.00000000000000000000,0.00000000000000000000,0.00000000000000000000,0,0,3,2,2,NULL,NULL,fall,2025-10-07 20:30:49.843,feature_mart,snap_20250905,2025-02-12 09:05:26,1,1,Email channel,train_split_v1,commit_0001
bxtl8nv8,2025-09-05,0.000000,0,0.000000,0,51.710000,1,41.150000,47,0.00000000000000000000,0.000000,0.000000,0.500000,0.250000,NULL,0.000000,0,0,0,0,0,0.00000000000000000000,0.00000000000000000000,0.00000000000000000000,0.00000000000000000000,0,0,5,4,5,NULL,NULL,fall,2025-10-07 20:30:49.843,feature_mart,snap_20250905,2025-07-19 09:00:39,1,1,iOS applications channel,train_split_v1,commit_0001
bxtl8nv8,2025-09-05,0.000000,0,0.000000,0,51.710000,1,41.150000,47,0.00000000000000000000,0.000000,0.000000,0.500000,0.250000,NULL,0.000000,0,0,0,0,0,0.00000000000000000000,0.00000000000000000000,0.00000000000000000000,0.00000000000000000000,0,0,5,5,5,NULL,NULL,fall,2025-10-07 20:30:49.843,feature_mart,snap_20250905,2025-07-19 09:00:39,1,1,iOS applications channel,train_split_v1,commit_0001
by3EcOyx,2025-09-05,0.000000,0,0.000000,0,0.000000,0,0.000000,365,0.00000000000000000000,0.000000,0.000000,0.000000,0.000000,NULL,0.000000,0,0,0,0,0,0.00000000000000000000,0.00000000000000000000,0.00000000000000000000,0.00000000000000000000,0,0,1,2,2,NULL,NULL,fall,2025-10-07 20:30:49.843,feature_mart,snap_20250905,2025-04-02 19:00:00,0,1,iOS applications channel,train_split_v1,commit_0001
bydk2KX9,2025-09-05,0.000000,0,0.000000,0,0.000000,0,0.000000,365,0.00000000000000000000,0.000000,0.000000,0.000000,0.000000,NULL,0.000000,0,0,0,0,0,0.00000000000000000000,0.00000000000000000000,0.00000000000000000000,0.00000000000000000000,0,0,1,2,2,NULL,NULL,fall,2025-10-07 20:30:49.843,feature_mart,snap_20250905,2024-11-09 16:00:00,0,1,Android applications channel,train_split_v1,commit_0001
BzB9Eyac,2025-09-05,0.000000,0,0.000000,0,0.000000,0,37.890000,186,0.00000000000000000000,0.000000,0.000000,1.000000,0.000000,NULL,0.000000,0,0,0,0,0,0.00000000000000000000,0.00000000000000000000,0.00000000000000000000,0.00000000000000000000,0,0,3,1,1,NULL,NULL,fall,2025-10-07 20:30:49.843,feature_mart,snap_20250905,2025-03-15 08:00:00,0,1,Android applications channel,train_split_v1,commit_0001
BzB9Eyac,2025-09-05,0.000000,0,0.000000,0,0.000000,0,37.890000,186,0.00000000000000000000,0.000000,0.000000,1.000000,0.000000,NULL,0.000000,0,0,0,0,0,0.00000000000000000000,0.00000000000000000000,0.00000000000000000000,0.00000000000000000000,0,0,3,2,2,NULL,NULL,fall,2025-10-07 20:30:49.843,feature_mart,snap_20250905,2025-03-15 08:00:00,0,1,Android applications channel,train_split_v1,commit_0001
C2xfIU1m,2025-09-05,0.000000,0,0.000000,0,0.000000,0,23.890000,155,0.00000000000000000000,0.000000,0.000000,0.000000,0.000000,NULL,0.000000,0,0,0,0,0,0.00000000000000000000,0.00000000000000000000,0.00000000000000000000,0.00000000000000000000,0,0,3,1,1,NULL,NULL,fall,2025-10-07 20:30:49.843,feature_mart,snap_20250905,2024-10-08 13:00:00,0,1,iOS applications channel,train_split_v1,commit_0001
C2xfIU1m,2025-09-05,0.000000,0,0.000000,0,0.000000,0,23.890000,155,0.00000000000000000000,0.000000,0.000000,0.000000,0.000000,NULL,0.000000,0,0,0,0,0,0.00000000000000000000,0.00000000000000000000,0.00000000000000000000,0.00000000000000000000,0,0,3,2,2,NULL,NULL,fall,2025-10-07 20:30:49.843,feature_mart,snap_20250905,2024-10-08 13:00:00,0,1,iOS applications channel,train_split_v1,commit_0001
c4BVuMqb,2025-09-05,0.000000,0,0.000000,0,0.000000,0,0.000000,365,0.00000000000000000000,0.000000,0.000000,0.000000,0.000000,NULL,0.000000,0,0,0,0,0,0.00000000000000000000,0.00000000000000000000,0.00000000000000000000,0.00000000000000000000,0,0,1,2,2,NULL,NULL,fall,2025-10-07 20:30:49.843,feature_mart,snap_20250905,2025-02-15 17:00:00,0,1,iOS applications channel,train_split_v1,commit_0001
C6ZKPmuM,2025-09-05,0.000000,0,0.000000,0,0.000000,0,0.000000,365,0.00000000000000000000,0.000000,0.000000,0.000000,0.000000,NULL,0.000000,0,0,0,0,0,0.00000000000000000000,0.00000000000000000000,0.00000000000000000000,0.00000000000000000000,0,0,1,2,2,NULL,NULL,fall,2025-10-07 20:30:49.843,feature_mart,snap_20250905,2025-08-05 10:00:00,0,1,Android applications channel,train_split_v1,commit_0001
ca2iQPkv,2025-09-05,0.000000,0,0.000000,0,0.000000,0,40.040000,115,0.00000000000000000000,0.000000,0.000000,0.000000,0.000000,NULL,0.000000,0,0,0,0,0,0.00000000000000000000,0.00000000000000000000,0.00000000000000000000,0.00000000000000000000,0,0,4,1,1,NULL,NULL,fall,2025-10-07 20:30:49.843,feature_mart,snap_20250905,2025-06-06 08:00:00,0,1,Email channel,train_split_v1,commit_0001
ca2iQPkv,2025-09-05,0.000000,0,0.000000,0,0.000000,0,40.040000,115,0.00000000000000000000,0.000000,0.000000,0.000000,0.000000,NULL,0.000000,0,0,0,0,0,0.00000000000000000000,0.00000000000000000000,0.00000000000000000000,0.00000000000000000000,0,0,4,2,2,NULL,NULL,fall,2025-10-07 20:30:49.843,feature_mart,snap_20250905,2025-06-06 08:00:00,0,1,Email channel,train_split_v1,commit_0001
CaqnpSew,2025-09-05,0.000000,0,0.000000,0,0.000000,0,0.000000,365,0.00000000000000000000,0.000000,0.000000,0.000000,0.000000,NULL,0.000000,0,0,0,0,0,0.00000000000000000000,0.00000000000000000000,0.00000000000000000000,0.00000000000000000000,0,0,1,2,2,NULL,NULL,fall,2025-10-07 20:30:49.843,feature_mart,snap_20250905,2025-01-02 09:00:00,0,1,iOS applications channel,train_split_v1,commit_0001
cCqw30fC,2025-09-05,0.000000,0,0.000000,0,22.970000,1,29.010000,40,0.00000000000000000000,0.000000,0.000000,0.000000,1.000000,NULL,0.000000,0,0,0,0,0,0.00000000000000000000,0.00000000000000000000,0.00000000000000000000,0.00000000000000000000,0,0,5,4,4,NULL,NULL,fall,2025-10-07 20:30:49.843,feature_mart,snap_20250905,2025-07-25 16:17:30,1,1,iOS applications channel,train_split_v1,commit_0001
cCqw30fC,2025-09-05,0.000000,0,0.000000,0,22.970000,1,29.010000,40,0.00000000000000000000,0.000000,0.000000,0.000000,1.000000,NULL,0.000000,0,0,0,0,0,0.00000000000000000000,0.00000000000000000000,0.00000000000000000000,0.00000000000000000000,0,0,5,5,4,NULL,NULL,fall,2025-10-07 20:30:49.843,feature_mart,snap_20250905,2025-07-25 16:17:30,1,1,iOS applications channel,train_split_v1,commit_0001
CDqo1rKd,2025-09-05,0.000000,0,0.000000,0,0.000000,0,0.000000,365,0.00000000000000000000,0.000000,0.000000,0.000000,0.000000,NULL,0.000000,0,0,0,0,0,0.00000000000000000000,0.00000000000000000000,0.00000000000000000000,0.00000000000000000000,0,0,1,2,2,NULL,NULL,fall,2025-10-07 20:30:49.843,feature_mart,snap_20250905,2024-11-13 15:00:00,0,1,iOS applications channel,train_split_v1,commit_0001
CeTsprvu,2025-09-05,0.000000,0,0.000000,0,0.000000,0,0.000000,365,0.00000000000000000000,0.000000,0.000000,0.000000,0.000000,NULL,0.000000,0,0,0,0,0,0.00000000000000000000,0.00000000000000000000,0.00000000000000000000,0.00000000000000000000,0,0,1,2,2,NULL,NULL,fall,2025-10-07 20:30:49.843,feature_mart,snap_20250905,2024-11-23 10:00:00,0,1,Android applications channel,train_split_v1,commit_0001
CFowJ8yB,2025-09-05,0.000000,0,0.000000,0,0.000000,0,0.000000,365,0.00000000000000000000,0.000000,0.000000,0.000000,0.000000,NULL,0.000000,0,0,0,0,0,0.00000000000000000000,0.00000000000000000000,0.00000000000000000000,0.00000000000000000000,0,0,1,2,2,NULL,NULL,fall,2025-10-07 20:30:49.843,feature_mart,snap_20250905,2024-10-09 10:00:00,0,1,Android applications channel,train_split_v1,commit_0001
cfzyyJEd,2025-09-05,0.000000,0,0.000000,0,0.000000,0,0.000000,365,0.00000000000000000000,0.000000,0.000000,0.000000,0.000000,NULL,0.000000,0,0,0,0,0,0.00000000000000000000,0.00000000000000000000,0.00000000000000000000,0.00000000000000000000,0,0,1,2,2,NULL,NULL,fall,2025-10-07 20:30:49.843,feature_mart,snap_20250905,2025-03-04 16:00:00,0,1,Email channel,train_split_v1,commit_0001
ciG9Lv3g,2025-09-05,0.000000,0,0.000000,0,0.000000,0,22.040000,273,0.00000000000000000000,0.000000,0.000000,0.000000,0.000000,NULL,0.000000,0,0,0,0,0,0.00000000000000000000,0.00000000000000000000,0.00000000000000000000,0.00000000000000000000,0,0,2,1,1,NULL,NULL,fall,2025-10-07 20:30:49.843,feature_mart,snap_20250905,2025-06-16 08:00:00,0,1,Android applications channel,train_split_v1,commit_0001
ciG9Lv3g,2025-09-05,0.000000,0,0.000000,0,0.000000,0,22.040000,273,0.00000000000000000000,0.000000,0.000000,0.000000,0.000000,NULL,0.000000,0,0,0,0,0,0.00000000000000000000,0.00000000000000000000,0.00000000000000000000,0.00000000000000000000,0,0,2,2,2,NULL,NULL,fall,2025-10-07 20:30:49.843,feature_mart,snap_20250905,2025-06-16 08:00:00,0,1,Android applications channel,train_split_v1,commit_0001
